loggingTime(txt)|accelerometerTimestamp_sinceReboot(s)|accelerometerAccelerationX(G)|accelerometerAccelerationY(G)|accelerometerAccelerationZ(G)|motionTimestamp_sinceReboot(s)|motionYaw(rad)|motionRoll(rad)|motionPitch(rad)|motionRotationRateX(rad/s)|motionRotationRateY(rad/s)|motionRotationRateZ(rad/s)|motionUserAccelerationX(G)|motionUserAccelerationY(G)|motionUserAccelerationZ(G)|motionAttitudeReferenceFrame(txt)|motionQuaternionX(R)|motionQuaternionY(R)|motionQuaternionZ(R)|motionQuaternionW(R)|motionGravityX(G)|motionGravityY(G)|motionGravityZ(G)|motionMagneticFieldX(µT)|motionMagneticFieldY(µT)|motionMagneticFieldZ(µT)|motionHeading(°)|motionMagneticFieldCalibrationAccuracy(Z)|altimeterTimestamp_sinceReboot(s)|altimeterReset(bool)|altimeterRelativeAltitude(m)|altimeterPressure(kPa)|label
2021-02-11 18:42:05.919 +0000|34391.325355375|-0.3353424072265625|0.366912841796875|-0.8616180419921875|34391.30539337501|-3.0612145612756|-0.3630320046211745|-0.3655409549800461|-0.004487039521336555|0.002729313913732767|-0.002500190632417798|0.001783758401870728|-0.0006582736968994141|-0.0003214478492736816|XArbitraryZVertical|-0.1845533689989936|0.1714920232136764|-0.9650894994226951|0.07164393582271487|-0.3316483199596405|0.3574545681476593|-0.8730610609054565|0|0|0|-1|-1|634761723.3788165|0|3.940002|99.96571|3
2021-02-11 18:42:05.937 +0000|34391.345316375|-0.3309478759765625|0.3568878173828125|-0.8698883056640625|34391.345316375|-3.061057812501946|-0.3633270446288411|-0.3655844251378154|-0.004685528110712767|-0.009935455396771431|0.01004773750901222|-0.002145081758499146|0.004107624292373657|0.004525244235992432|XArbitraryZVertical|-0.1847093015235645|0.1714880009806825|-0.9650526555991037|0.07174857242429199|-0.3319003582000732|0.3574951589107513|-0.8729487061500549|0|0|0|-1|-1|634761723.3788165|0|3.940002|99.96571|3
2021-02-11 18:42:05.955 +0000|34391.365278375|-0.332763671875|0.3505096435546875|-0.867218017578125|34391.345316375|-3.061057812501946|-0.3633270446288411|-0.3655844251378154|-0.004685528110712767|-0.009935455396771431|0.01004773750901222|-0.002145081758499146|0.004107624292373657|0.004525244235992432|XArbitraryZVertical|-0.1847093015235645|0.1714880009806825|-0.9650526555991037|0.07174857242429199|-0.3319003582000732|0.3574951589107513|-0.8729487061500549|0|0|0|-1|-1|634761725.9257429|0|3.940002|99.96597|3
2021-02-11 18:42:05.975 +0000|34391.385239375|-0.326629638671875|0.351654052734375|-0.868499755859375|34391.385239375|-3.060859509316747|-0.3641100292010249|-0.3660589821316923|-0.01551966741681099|-0.03172538429498672|0.01291347574442625|0.007724672555923462|-0.008130550384521484|0.006425797939300537|XArbitraryZVertical|-0.1851055529677247|0.1716711422384263|-0.9649290094532081|0.07195187725060417|-0.3325233161449432|0.3579383194446564|-0.872529923915863|0|0|0|-1|-1|634761725.9257429|0|3.940002|99.96597|3
2021-02-11 18:42:05.995 +0000|34391.405201375|-0.343963623046875|0.357666015625|-0.8831939697265625|34391.385239375|-3.060859509316747|-0.3641100292010249|-0.3660589821316923|-0.01551966741681099|-0.03172538429498672|0.01291347574442625|0.007724672555923462|-0.008130550384521484|0.006425797939300537|XArbitraryZVertical|-0.1851055529677247|0.1716711422384263|-0.9649290094532081|0.07195187725060417|-0.3325233161449432|0.3579383194446564|-0.872529923915863|0|0|0|-1|-1|634761725.9257429|0|3.940002|99.96597|3
2021-02-11 18:42:06.015 +0000|34391.425162375|-0.3360748291015625|0.3643646240234375|-0.8829345703125|34391.405201375|-3.061131261874226|-0.3645538956467192|-0.3663084025447129|-0.007605683989822865|0.002446646336466074|-0.01646829396486282|-0.0143197774887085|-0.003114432096481323|-0.007843375205993652|XArbitraryZVertical|-0.1852971192752673|0.1718010205499924|-0.9648744137560458|0.07188017987828618|-0.3328787088394165|0.3581711947917938|-0.8722987771034241|0|0|0|-1|-1|634761725.9257429|0|3.940002|99.96597|3
2021-02-11 18:42:06.034 +0000|34391.445124375|-0.3271636962890625|0.3612518310546875|-0.8722991943359375|34391.425162375|-3.061565909803234|-0.3646810999614491|-0.366247939724335|0.01218859385699034|0.01149409636855125|-0.02074923552572727|-0.002299278974533081|0.008340328931808472|-0.0126873254776001|XArbitraryZVertical|-0.1853209655489066|0.1718074669587885|-0.9648839158226141|0.0716762491578876|-0.3329974114894867|0.3581147491931915|-0.8722766637802124|0|0|0|-1|-1|634761725.9257429|0|3.940002|99.96597|3
2021-02-11 18:42:06.055 +0000|34391.465086375|-0.32916259765625|0.3571319580078125|-0.8719329833984375|34391.445124375|-3.061822448280719|-0.3645571815341231|-0.3656797865709558|0.02636909484863281|0.011418835259974|-0.0183744952082634|0.005553930997848511|0.003026753664016724|-0.001774907112121582|XArbitraryZVertical|-0.1852375488316328|0.1715608057144194|-0.9649574079428079|0.0714932694129965|-0.3329617977142334|0.3575842082500458|-0.8725078701972961|0|0|0|-1|-1|634761725.9257429|0|3.940002|99.96597|3
2021-02-11 18:42:06.074 +0000|34391.485047375|-0.3342132568359375|0.3542327880859375|-0.8706207275390625|34391.465086375|-3.061776835370432|-0.3641384503291837|-0.3650353492724538|0.02573785930871964|0.01692572049796581|-0.006775008514523506|0.003042727708816528|0.003262460231781006|0.001173555850982666|XArbitraryZVertical|-0.1850375892983229|0.171259758736011|-0.9650543319608201|0.07142432743518656|-0.3326784372329712|0.3569823205471039|-0.8728623986244202|0|0|0|-1|-1|634761725.9257429|0|3.940002|99.96597|3
2021-02-11 18:42:06.094 +0000|34391.505009375|-0.3209686279296875|0.3533782958984375|-0.871551513671875|34391.485047375|-3.061808570975257|-0.3639427118754347|-0.3645467897291109|0.009739883244037628|0.01776828989386559|-0.01048035267740488|0.002033650875091553|-0.00360533595085144|0.0007606744766235352|XArbitraryZVertical|-0.1849390149320561|0.1710332936675526|-0.9651188231183406|0.07135055078205967|-0.3325695991516113|0.3565258979797363|-0.8730903267860413|0|0|0|-1|-1|634761725.9257429|0|3.940002|99.96597|3
2021-02-11 18:42:06.114 +0000|34391.524970375|-0.330841064453125|0.358123779296875|-0.868743896484375|34391.505009375|-3.061898016927632|-0.3636601288445238|-0.3644178408803315|-0.0006863089511170983|0.004378822632133961|-0.008075962774455547|0.005404353141784668|-0.003530651330947876|0.001599490642547607|XArbitraryZVertical|-0.1847946198622437|0.1709892337107113|-0.9651601206130446|0.07127222240175025|-0.3323392271995544|0.3564054369926453|-0.8732272386550903|0|0|0|-1|-1|634761725.9257429|0|3.940002|99.96597|3
2021-02-11 18:42:06.134 +0000|34391.544932375|-0.33612060546875|0.3504791259765625|-0.871551513671875|34391.524970375|-3.061935827092518|-0.3635865633839274|-0.3644048583654433|0.008508686907589436|0.00604697410017252|0.002179516013711691|0.003159761428833008|-0.002984464168548584|0.005641281604766846|XArbitraryZVertical|-0.1847558621384259|0.1709890810698645|-0.9651693771110947|0.07124657726783798|-0.3322766125202179|0.3563933074474335|-0.8732560276985168|0|0|0|-1|-1|634761725.9257429|0|3.940002|99.96597|3
2021-02-11 18:42:06.154 +0000|34391.56489437501|-0.332183837890625|0.354217529296875|-0.87457275390625|34391.544932375|-3.061857701906344|-0.3633937479439128|-0.3643004505026986|0.01177711877971888|0.01345610059797764|-0.003154529258608818|-0.001969784498214722|-0.007403522729873657|0.002871453762054443|XArbitraryZVertical|-0.1846691755699875|0.1709382011181727|-0.9651941331742611|0.07125889740977624|-0.3321214616298676|0.3562957346439362|-0.8733548521995544|0|0|0|-1|-1|634761725.9257429|0|3.940002|99.96597|3
2021-02-11 18:42:06.174 +0000|34391.584855375|-0.3361053466796875|0.3582305908203125|-0.868194580078125|34391.56489437501|-3.061752422915727|-0.3631060970568807|-0.3639675423379853|0.0135220056399703|0.008939432911574841|-0.0004170658066868782|-0.0009734630584716797|0.001010000705718994|-3.49879264831543e-05|XArbitraryZVertical|-0.184538366740717|0.1707776360899023|-0.9652477143516973|0.0712567685342135|-0.3319123387336731|0.3559846580028534|-0.8735612034797668|0|0|0|-1|-1|634761725.9257429|0|3.940002|99.96597|3
2021-02-11 18:42:06.194 +0000|34391.604817375|-0.3340911865234375|0.354156494140625|-0.86627197265625|34391.584855375|-3.061770174289096|-0.3629202517349121|-0.3638041095225606|4.451232962310314e-05|0.006587861571460962|-0.009798938408493996|-0.005662262439727783|0.003298938274383545|0.004338264465332031|XArbitraryZVertical|-0.1844466761147172|0.1707068101922035|-0.9652805535946946|0.07121841892255733|-0.3317706286907196|0.3558319211006165|-0.8736771941184998|0|0|0|-1|-1|634761725.9257429|0|3.940002|99.96597|3
2021-02-11 18:42:06.214 +0000|34391.624778375|-0.3337249755859375|0.3487701416015625|-0.8715667724609375|34391.604817375|-3.061970165193841|-0.3627082808417547|-0.3637796262102014|-0.008135253563523293|0.01041045784950256|-0.01270098425447941|-0.005050927400588989|-0.0003555417060852051|0.007254838943481445|XArbitraryZVertical|-0.1843272201004255|0.1707209353326457|-0.9653095099104577|0.07110171778152151|-0.3315885365009308|0.3558090627193451|-0.8737556934356689|0|0|0|-1|-1|634761725.9257429|0|3.940002|99.96597|3
2021-02-11 18:42:06.234 +0000|34391.644740375|-0.337799072265625|0.348297119140625|-0.8735198974609375|34391.624778375|-3.062397658470033|-0.362756312179791|-0.3639808709573685|-0.02473295480012894|0.002224058844149113|-0.01936323754489422|-0.0007771551609039307|-0.008203566074371338|0.003525137901306152|XArbitraryZVertical|-0.1843144827108838|0.1708560235599002|-0.9653016381132452|0.07091661324434705|-0.331605076789856|0.3559971153736115|-0.8736727833747864|0|0|0|-1|-1|634761725.9257429|0|3.940002|99.96597|3
2021-02-11 18:42:06.254 +0000|34391.664702375|-0.3316497802734375|0.348663330078125|-0.8718719482421875|34391.644740375|-3.06302897682135|-0.3628606840059362|-0.3642783795204501|-0.02231472171843052|0.01514731533825397|-0.02226475067436695|-0.007635831832885742|-0.006680965423583984|0.0004159808158874512|XArbitraryZVertical|-0.1843117151215332|0.1710544878746018|-0.9652868321287273|0.07064615860095842|-0.331658661365509|0.3562751114368439|-0.8735390901565552|0|0|0|-1|-1|634761725.9257429|0|3.940002|99.96597|3
2021-02-11 18:42:06.274 +0000|34391.684663375|-0.3320159912109375|0.3380279541015625|-0.8702850341796875|34391.664702375|-3.063707309125943|-0.3629680235938877|-0.3645214845971302|-0.01688811555504799|0.009449748322367668|-0.01938569732010365|0.001201003789901733|-0.006557196378707886|-0.0007534623146057129|XArbitraryZVertical|-0.1843060927642126|0.1712308490790602|-0.9652784193369363|0.07034866278441536|-0.3317216634750366|0.3565022647380829|-0.8734225034713745|0|0|0|-1|-1|634761725.9257429|0|3.940002|99.96597|3
2021-02-11 18:42:06.294 +0000|34391.704625375|-0.3388214111328125|0.3214569091796875|-0.870941162109375|34391.684663375|-3.064352589868263|-0.3630890248939698|-0.3647427368502815|-0.02260245941579342|0.01964619196951389|-0.02632882446050644|0.00144648551940918|-0.01564449071884155|0.002260684967041016|XArbitraryZVertical|-0.1843097618912041|0.171393143826421|-0.9652693758257849|0.07006644915873378|-0.331799328327179|0.3567089736461639|-0.8733085989952087|0|0|0|-1|-1|634761725.9257429|0|3.940002|99.96597|3
2021-02-11 18:42:06.314 +0000|34391.724586375|-0.355255126953125|0.3271942138671875|-0.8861083984375|34391.704625375|-3.06560367958226|-0.3631225648740722|-0.3649296513836881|-0.04471239075064659|0.03446625918149948|-0.07529414445161819|-0.002652555704116821|-0.03074219822883606|0.002995908260345459|XArbitraryZVertical|-0.184219067427197|0.1715976784743449|-0.9652926805149449|0.0694814429035101|-0.3318049311637878|0.3568835854530334|-0.8732351660728455|0|0|0|-1|-1|634761725.9257429|0|3.940002|99.96597|3
2021-02-11 18:42:06.334 +0000|34391.74454837501|-0.344085693359375|0.3271026611328125|-0.8909149169921875|34391.724586375|-3.068313089942737|-0.3630550919277472|-0.3650381754723465|-0.06241418793797493|0.0863126814365387|-0.145637109875679|-0.02033385634422302|-0.0238092839717865|-0.007638037204742432|XArbitraryZVertical|-0.1839540006338349|0.171901885743601|-0.9653821650622633|0.06817716785527733|-0.3317322432994843|0.356984943151474|-0.8732213377952576|0|0|0|-1|-1|634761725.9257429|0|3.940002|99.96597|3
2021-02-11 18:42:06.354 +0000|34391.764510375|-0.336273193359375|0.3227386474609375|-0.8889312744140625|34391.74454837501|-3.07236277548148|-0.3625674457541042|-0.3648617180189812|-0.08130256086587906|0.1184754073619843|-0.2068906128406525|-0.008911818265914917|-0.02781009674072266|-0.02188283205032349|XArbitraryZVertical|-0.1833700656198652|0.1722047681004548|-0.9655792140149426|0.06616518687001847|-0.3313287198543549|0.3568201065063477|-0.8734418749809265|0|0|0|-1|-1|634761725.9257429|0|3.940002|99.96597|3
2021-02-11 18:42:06.374 +0000|34391.784471375|-0.34771728515625|0.340606689453125|-0.891815185546875|34391.764510375|-3.077679474930187|-0.3617114730794067|-0.3647749791598172|-0.1127235442399979|0.1543376445770264|-0.2375894039869308|-0.01314288377761841|-0.05195999145507812|-0.01771008968353271|XArbitraryZVertical|-0.1824983660691204|0.1726768458080159|-0.965837869201423|0.06351677276964349|-0.3305919170379639|0.3567390739917755|-0.87375408411026|0|0|0|-1|-1|634761725.9257429|0|3.940002|99.96597|3
2021-02-11 18:42:06.394 +0000|34391.804433375|-0.3246612548828125|0.269927978515625|-0.864898681640625|34391.784471375|-3.083760863650262|-0.3610125380030067|-0.3645254771410144|-0.1067633405327797|0.2099698483943939|-0.2672743201255798|-0.005101025104522705|-0.05688440799713135|-0.03769022226333618|XArbitraryZVertical|-0.1816354272493448|0.1731313693077891|-0.9661129666927111|0.06049775063721778|-0.3300125598907471|0.3565059900283813|-0.8740682005882263|0|0|0|-1|-1|634761725.9257429|0|3.940002|99.96597|3
2021-02-11 18:42:06.419 +0000|34391.824394375|-0.2842559814453125|0.4273529052734375|-0.8345794677734375|34391.804433375|-3.09029927780775|-0.3588523646455051|-0.3645690998881529|-0.3376117348670959|0.2064228355884552|-0.3022061884403229|-0.006659716367721558|-0.07656320929527283|-0.01328176259994507|XArbitraryZVertical|-0.1800244904047624|0.1738071917850488|-0.9664966127930619|0.05715506538311497|-0.3281182050704956|0.3565467596054077|-0.8747645020484924|0|0|0|-1|-1|634761725.9257429|0|3.940002|99.96597|3
2021-02-11 18:42:06.434 +0000|34391.844356375|-0.1147918701171875|0.0886993408203125|-0.624359130859375|34391.824394375|-3.09898599831519|-0.3563612457405764|-0.3659677166401585|-0.1753997355699539|0.3257879614830017|-0.3383070230484009|0.02890393137931824|-0.05078521370887756|0.03152883052825928|XArbitraryZVertical|-0.1780555410521338|0.1753304116779925|-0.9668306610624452|0.05285839053688055|-0.3257637321949005|0.3578530848026276|-0.875110924243927|0|0|0|-1|-1|634761725.9257429|0|3.940002|99.96597|3
2021-02-11 18:42:06.454 +0000|34391.864318375|-0.31884765625|0.3238525390625|-0.6362152099609375|34391.844356375|-3.105209726069358|-0.3501802507995612|-0.3712642342572648|-1.205518007278442|0.3910301923751831|0.1230605766177177|0.05037608742713928|-0.08792197704315186|0.14339679479599|XArbitraryZVertical|-0.1744818480277774|0.178601574454034|-0.9670483929721226|0.04975042366177757|-0.3196937739849091|0.3627938330173492|-0.8753151297569275|0|0|0|-1|-1|634761725.9257429|0|3.940002|99.96597|3
2021-02-11 18:42:06.474 +0000|34391.884279375|-0.2989501953125|0.2911834716796875|-0.5958099365234375|34391.864318375|-3.121120456284657|-0.35981366202597|-0.3908355343452157|-1.158929467201233|-0.2284587323665619|-0.2323580682277679|0.04492390155792236|-0.2523752450942993|0.1960099935531616|XArbitraryZVertical|-0.1774784113825789|0.1892356845876874|-0.964728019407301|0.04462272650664017|-0.325548380613327|0.3809610903263092|-0.8653825521469116|0|0|0|-1|-1|634761725.9257429|0|3.940002|99.96597|3
2021-02-11 18:42:06.494 +0000|34391.904241375|-0.2753448486328125|0.4097747802734375|-0.620025634765625|34391.884279375|-3.138253569728897|-0.3682109481830614|-0.4104226601449326|-1.200384259223938|-0.09129593521356583|-0.4745187759399414|-0.05928921699523926|0.01071682572364807|0.2755507826805115|XArbitraryZVertical|-0.1795602711807203|0.2000308444584697|-0.9624093755191193|0.03891117588848794|-0.3300541043281555|0.3989969193935394|-0.8554915189743042|0|0|0|-1|-1|634761725.9257429|0|3.940002|99.96597|3
2021-02-11 18:42:06.514 +0000|34391.924202375|-0.313446044921875|0.437835693359375|-0.620513916015625|34391.904241375|3.124240360334353|-0.3831764240473446|-0.4298427961657069|-1.303677320480347|-0.460618793964386|-0.54997318983078|0.1125173270702362|-0.03046688437461853|0.2124794721603394|XArbitraryZVertical|-0.184213862236414|0.2109746074378404|-0.9594334726670372|0.03228775434137814|-0.3398580849170685|0.4167279005050659|-0.8431099653244019|0|0|0|-1|-1|634761725.9257429|0|3.940002|99.96597|3
2021-02-11 18:42:06.534 +0000|34391.944164375|-0.2606658935546875|0.406982421875|-0.6505584716796875|34391.924202375|3.100792334715409|-0.4018618196710562|-0.4496009405375501|-1.31854522228241|-0.4242009222507477|-0.6497073769569397|0.01333373785018921|-0.005879968404769897|0.2164453864097595|XArbitraryZVertical|-0.1900637304047207|0.2223504745343296|-0.955934756701067|0.02499444259414954|-0.3522619903087616|0.4346061646938324|-0.8288720846176147|0|0|0|-1|-1|634761725.9257429|0|3.940002|99.96597|3
2021-02-11 18:42:06.554 +0000|34391.964126375|-0.2604827880859375|0.3409423828125|-0.6310272216796875|34391.944164375|3.075230276327926|-0.4236207400410024|-0.4678601388192183|-1.278107523918152|-0.596036434173584|-0.7255872488021851|0.1133794486522675|-0.03256615996360779|0.1651121377944946|XArbitraryZVertical|-0.1968733193448655|0.233281691524975|-0.9521167407850469|0.01715471137574025|-0.3668889999389648|0.4509774148464203|-0.8136410713195801|0|0|0|-1|-1|634761725.9257429|0|3.940002|99.96597|3
2021-02-11 18:42:06.574 +0000|34391.98408825|-0.23797607421875|0.3070526123046875|-0.6039581298828125|34391.964126375|3.047608693862598|-0.4494577937647674|-0.4851408758666858|-1.350945830345154|-0.7184002995491028|-0.7806990146636963|0.1169627606868744|-0.1115661263465881|0.158111035823822|XArbitraryZVertical|-0.2050797682408166|0.2440616755149998|-0.9477842629379032|0.00901442820330855|-0.3843426108360291|0.4663329720497131|-0.796752393245697|0|0|0|-1|-1|634761725.9257429|0|3.940002|99.96597|3
2021-02-11 18:42:06.594 +0000|34392.00405025001|-0.2786407470703125|0.3641357421875|-0.6118316650390625|34391.98408825|3.016446328300381|-0.4803342046841633|-0.5030074358888524|-1.486435055732727|-0.8966667652130127|-0.8875046372413635|0.1662396788597107|-0.1655343174934387|0.1686257123947144|XArbitraryZVertical|-0.2148154564211423|0.255651127928271|-0.9426011652983508|0.0002526298806723021|-0.404841423034668|0.4820626378059387|-0.7769936323165894|0|0|0|-1|-1|634761725.9257429|0|3.940002|99.96597|3
2021-02-11 18:42:06.614 +0000|34392.02401125|-0.3645172119140625|0.467620849609375|-0.5997467041015625|34392.02401125|2.94293651502197|-0.5626181037651258|-0.5376823032914253|-1.493784070014954|-1.223734259605408|-1.014729380607605|0.09334647655487061|-0.0765082836151123|0.1271588206291199|XArbitraryZVertical|-0.2410179630617172|0.280456719874081|-0.9289312095612751|-0.0184701919773074|-0.4581384062767029|0.5121467113494873|-0.7265087366104126|0|0|0|-1|-1|634761725.9257429|0|3.940002|99.96597|3
2021-02-11 18:42:06.634 +0000|34392.04397325|-0.311492919921875|0.4657135009765625|-0.590240478515625|34392.02401125|2.94293651502197|-0.5626181037651258|-0.5376823032914253|-1.493784070014954|-1.223734259605408|-1.014729380607605|0.09334647655487061|-0.0765082836151123|0.1271588206291199|XArbitraryZVertical|-0.2410179630617172|0.280456719874081|-0.9289312095612751|-0.0184701919773074|-0.4581384062767029|0.5121467113494873|-0.7265087366104126|0|0|0|-1|-1|634761725.9257429|0|3.940002|99.96597|3
2021-02-11 18:42:06.654 +0000|34392.06393525|-0.287445068359375|0.35784912109375|-0.5393524169921875|34392.04397325|2.905047110382032|-0.6072232772642076|-0.5489836920247925|-1.249193072319031|-1.311637043952942|-1.069261193275452|0.1590922176837921|-0.0329136848449707|0.1029641628265381|XArbitraryZVertical|-0.2552444697737983|0.290810204069515|-0.9216836037677044|-0.02791336113792256|-0.4867442548274994|0.5218205451965332|-0.7005593776702881|0|0|0|-1|-1|634761725.9257429|0|3.940002|99.96597|3
2021-02-11 18:42:06.674 +0000|34392.08389625001|-0.312347412109375|0.2792510986328125|-0.51788330078125|34392.06393525|2.867739056289491|-0.6544752649640456|-0.5556753545808281|-1.198293566703796|-1.464434027671814|-1.119975447654724|0.2291292548179626|-0.1408289074897766|0.1245014071464539|XArbitraryZVertical|-0.2707569034317228|0.2994833236673659|-0.9141302704757156|-0.03696374669583379|-0.5171542167663574|0.5275171399116516|-0.6740008592605591|0|0|0|-1|-1|634761725.9257429|0|3.940002|99.96597|3
2021-02-11 18:42:06.694 +0000|34392.10385825|-0.429779052734375|0.3817138671875|-0.5337371826171875|34392.08389625001|2.82879412326385|-0.7063421680233269|-0.5599901102201693|-1.228280782699585|-1.685836791992188|-1.187157273292542|0.2511213421821594|-0.2427104115486145|0.1302178502082825|XArbitraryZVertical|-0.2879598672256252|0.3079061495024964|-0.9056231576990804|-0.04604124231252273|-0.5499190092086792|0.531177818775177|-0.64454585313797|0|0|0|-1|-1|634761725.9257429|0|3.940002|99.96597|3
2021-02-11 18:42:06.714 +0000|34392.12381925|-0.5327911376953125|0.36395263671875|-0.492279052734375|34392.10385825|2.787595017454725|-0.7643415733470854|-0.5624274258054744|-1.270103335380554|-1.867475986480713|-1.214423179626465|0.1964512467384338|-0.1793289184570312|0.07369184494018555|XArbitraryZVertical|-0.3073489586454242|0.3165633017041068|-0.8957070599837894|-0.05507532682564512|-0.5854589343070984|0.5332412719726562|-0.6106485724449158|0|0|0|-1|-1|634761725.9257429|0|3.940002|99.96597|3
2021-02-11 18:42:06.734 +0000|34392.14378125|-0.5125732421875|0.313232421875|-0.420135498046875|34392.12381925|2.747161739911637|-0.8215122740772456|-0.5627568779464428|-1.196364998817444|-1.664045095443726|-1.152858376502991|0.0944855809211731|-0.154949426651001|0.06883049011230469|XArbitraryZVertical|-0.3262810747008204|0.3248099556704671|-0.8854166549941428|-0.06384730353848478|-0.6192658543586731|0.533519983291626|-0.5760782957077026|0|0|0|-1|-1|634761725.9257429|0|3.940002|99.96597|3
2021-02-11 18:42:06.753 +0000|34392.16374225|-0.4495697021484375|0.2908782958984375|-0.3728790283203125|34392.14378125|2.709013437077307|-0.8722149130679828|-0.5619863441223969|-1.207871198654175|-1.406421780586243|-1.039171934127808|0.1260234117507935|-0.2098395824432373|0.1092960834503174|XArbitraryZVertical|-0.3424490281733228|0.3325959151410625|-0.8757026148501563|-0.07248105843611977|-0.647980809211731|0.5328680872917175|-0.5442172288894653|0|0|0|-1|-1|634761725.9257429|0|3.940002|99.96597|3
2021-02-11 18:42:06.773 +0000|34392.18370425|-0.4306640625|0.2518310546875|-0.361572265625|34392.16374225|2.672005583240054|-0.9185098292814079|-0.5620003410795712|-1.218969941139221|-1.277888298034668|-0.929378867149353|0.2088583707809448|-0.2387514710426331|0.1353158354759216|XArbitraryZVertical|-0.3563780429131319|0.3408424830012556|-0.8661941861075457|-0.08080130383157509|-0.6724662184715271|0.5328799486160278|-0.5136421918869019|0|0|0|-1|-1|634761725.9257429|0|3.940002|99.96597|3
2021-02-11 18:42:06.793 +0000|34392.20366625|-0.428253173828125|0.2624359130859375|-0.385009765625|34392.18370425|2.636121026343412|-0.9619411082182883|-0.5624207795684102|-1.293597102165222|-1.144978284835815|-0.8385886549949646|0.2667489647865295|-0.2631855607032776|0.1237711310386658|XArbitraryZVertical|-0.3688260077479762|0.3493579552517762|-0.8567702481558986|-0.0886642282539311|-0.6939494013786316|0.5332356691360474|-0.4838327765464783|0|0|0|-1|-1|634761725.9257429|0|3.940002|99.96597|3
2021-02-11 18:42:06.813 +0000|34392.22362725|-0.4792327880859375|0.380279541015625|-0.406768798828125|34392.20366625|2.599048539711651|-1.004691267661318|-0.564650157452552|-1.46367359161377|-1.163055419921875|-0.7185232639312744|0.2855586409568787|-0.2981055378913879|0.07640093564987183|XArbitraryZVertical|-0.3800831015368747|0.3591511384619397|-0.8469174277100463|-0.09632420669268264|-0.7129878997802734|0.5351203083992004|-0.4530946016311646|0|0|0|-1|-1|634761725.9257429|0|3.940002|99.96597|3
2021-02-11 18:42:06.833 +0000|34392.24358925|-0.484649658203125|0.4343719482421875|-0.3944091796875|34392.22362725|2.560509290985759|-1.047084813804154|-0.5686693284483388|-1.513585567474365|-0.9746792912483215|-0.6240507364273071|0.2613281011581421|-0.1852397918701172|0.01097583770751953|XArbitraryZVertical|-0.390168558078146|0.3702333889098739|-0.8366167886412609|-0.1037700994231031|-0.7296814322471619|0.5385112762451172|-0.4213914573192596|0|0|0|-1|-1|634761725.9257429|0|3.940002|99.96597|3
2021-02-11 18:42:06.853 +0000|34392.26355125001|-0.5001373291015625|0.42962646484375|-0.3634033203125|34392.24358925|2.523121960555977|-1.083998567148543|-0.5729126425981733|-1.462395071983337|-0.7286116480827332|-0.5404407978057861|0.2566713690757751|-0.1125012636184692|-0.005151569843292236|XArbitraryZVertical|-0.3976921750703655|0.3811686765954959|-0.8271490143382634|-0.1112476972146515|-0.7427096366882324|0.542081892490387|-0.3931027352809906|0|0|0|-1|-1|634761725.9257429|0|3.940002|99.96597|3
2021-02-11 18:42:06.873 +0000|34392.28351225|-0.6128997802734375|0.47381591796875|-0.438751220703125|34392.26355125001|2.486760348578402|-1.1174112570339|-0.5761720043942621|-1.390681862831116|-0.6937364339828491|-0.5564907789230347|0.2564594149589539|-0.1169157028198242|-2.86102294921875e-05|XArbitraryZVertical|-0.4037663064273354|0.3915669450519595|-0.8182436433473941|-0.118851389924379|-0.7538349628448486|0.5448179244995117|-0.3672961890697479|0|0|0|-1|-1|634761725.9257429|0|3.940002|99.96597|3
2021-02-11 18:42:06.893 +0000|34392.30347425|-0.8389129638671875|0.4550018310546875|-0.4092559814453125|34392.28351225|2.453280771330133|-1.151824404977353|-0.5763970870254289|-1.109320878982544|-0.8968253135681152|-0.6078348159790039|0.2044665813446045|-0.08380985260009766|-0.07507607340812683|XArbitraryZVertical|-0.411091907677733|0.4005713722253085|-0.809179816312121|-0.1255946086853679|-0.7659137845039368|0.5450066924095154|-0.341092050075531|0|0|0|-1|-1|634761725.9257429|0|3.940002|99.96597|3
2021-02-11 18:42:06.920 +0000|34392.32343525|-0.9266357421875|0.4412841796875|-0.29205322265625|34392.30347425|2.427227213019556|-1.182655613470772|-0.5729486090722329|-0.8680714964866638|-0.6933533549308777|-0.5699208378791809|-0.01526087522506714|-0.06944066286087036|-0.1183417141437531|XArbitraryZVertical|-0.4189731919951948|0.4067516804383626|-0.8011809784114072|-0.1308571581327976|-0.7777994275093079|0.5421121120452881|-0.3180290758609772|0|0|0|-1|-1|634761725.9257429|0|3.940002|99.96597|3
2021-02-11 18:42:06.934 +0000|34392.34339725|-0.91802978515625|0.5572662353515625|-0.3244171142578125|34392.32343525|2.396905851996463|-1.207880446361246|-0.5706582126699599|-1.588432431221008|-0.2207362055778503|-0.6425024271011353|-0.1254535913467407|-0.1051275134086609|-0.009416311979293823|XArbitraryZVertical|-0.4233040527269579|0.4140514737062277|-0.7938564100623209|-0.1384451088446939|-0.7867320775985718|0.5401861071586609|-0.298750102519989|0|0|0|-1|-1|634761725.9257429|0|3.940002|99.96597|3
2021-02-11 18:42:06.953 +0000|34392.36335925|-1.020034790039062|0.6319427490234375|-0.3073577880859375|34392.34339725|2.348404155006372|-1.236143594923324|-0.5698508328537338|-2.096495866775513|-0.04096325114369392|-0.8362866640090942|-0.1217507123947144|-0.02827602624893188|-0.04175686836242676|XArbitraryZVertical|-0.4244481847481326|0.426113879532787|-0.7843475531235479|-0.1518869715966149|-0.7952721118927002|0.5395064353942871|-0.2765414118766785|0|0|0|-1|-1|634761725.9257429|0|3.940002|99.96597|3
2021-02-11 18:42:06.973 +0000|34392.38332025|-1.173355102539062|0.6789398193359375|-0.1945037841796875|34392.36335925|2.29401522654857|-1.265905861295886|-0.565705361890507|-2.114968776702881|-0.002630670089274645|-0.9838846325874329|-0.1752846837043762|0.08561646938323975|-0.06737819314002991|XArbitraryZVertical|-0.4252375218644474|0.4387046387983441|-0.7736427142257394|-0.1678942523711966|-0.8052757978439331|0.5360113978385925|-0.2534225881099701|0|0|0|-1|-1|634761725.9257429|0|3.940002|99.96597|3
2021-02-11 18:42:06.994 +0000|34392.40328225|-1.161483764648438|0.6595001220703125|-0.0334625244140625|34392.40328225|2.188356522110993|-1.310987983288627|-0.5556069647093133|-2.208971261978149|0.5924418568611145|-0.6290043592453003|-0.3554152846336365|0.1635809540748596|0.1433021426200867|XArbitraryZVertical|-0.4211109996935457|0.4621026848083196|-0.7540818116414864|-0.2012146404296086|-0.8210679292678833|0.5274590849876404|-0.2182532697916031|0|0|0|-1|-1|634761725.9257429|0|3.940002|99.96597|3
2021-02-11 18:42:07.013 +0000|34392.42324325|-1.099563598632812|0.6867218017578125|0.0436248779296875|34392.40328225|2.188356522110993|-1.310987983288627|-0.5556069647093133|-2.208971261978149|0.5924418568611145|-0.6290043592453003|-0.3554152846336365|0.1635809540748596|0.1433021426200867|XArbitraryZVertical|-0.4211109996935457|0.4621026848083196|-0.7540818116414864|-0.2012146404296086|-0.8210679292678833|0.5274590849876404|-0.2182532697916031|0|0|0|-1|-1|634761725.9257429|0|3.940002|99.96597|3
2021-02-11 18:42:07.033 +0000|34392.44320525001|-1.099716186523438|0.7400360107421875|-0.05810546875|34392.42324325|2.128091533643677|-1.329489310828416|-0.5572873856353429|-2.805149793624878|0.6920102834701538|-0.5221065282821655|-0.2860499620437622|0.1300800442695618|0.2566468715667725|XArbitraryZVertical|-0.4134635950433477|0.4771173339734565|-0.7439633976112259|-0.2189185430179895|-0.8241032361984253|0.5288859605789185|-0.2028138041496277|0|0|0|-1|-1|634761725.9257429|0|3.940002|99.96597|3
2021-02-11 18:42:07.053 +0000|34392.46316725|-1.175338745117188|0.7261810302734375|-0.0847015380859375|34392.44320525001|2.059740218073883|-1.35161369776597|-0.5599854239827684|-2.782914638519287|0.7199234962463379|-0.5052410364151001|-0.2641177177429199|0.2077177166938782|0.1481807976961136|XArbitraryZVertical|-0.4043169719215132|0.4943852779935791|-0.7317819727922735|-0.2379205341362529|-0.8269925713539124|0.5311738252639771|-0.1842219680547714|0|0|0|-1|-1|634761725.9257429|0|3.940002|99.96597|3
2021-02-11 18:42:07.073 +0000|34392.48312825|-1.152633666992188|0.506134033203125|-0.024566650390625|34392.46316725|1.998305341587686|-1.369395339540972|-0.5603008470593215|-2.371587038040161|0.810408890247345|-0.5522216558456421|-0.3282451629638672|0.2078167796134949|0.08397512137889862|XArbitraryZVertical|-0.3952782666330358|0.5089476117740949|-0.7206665350527576|-0.2556704640451952|-0.8299733996391296|0.5314410924911499|-0.1694548428058624|0|0|0|-1|-1|634761725.9257429|0|3.940002|99.96597|3
2021-02-11 18:42:07.093 +0000|34392.50309025|-1.086822509765625|0.618438720703125|-0.021331787109375|34392.48312825|1.941806754176596|-1.381734611652978|-0.5595919501434491|-2.442982912063599|0.9165739417076111|-0.4133294522762299|-0.3435173034667969|0.02769225835800171|0.1180882453918457|XArbitraryZVertical|-0.3853374555150508|0.5214203712194451|-0.7107345696473181|-0.2729328954349559|-0.8323708176612854|0.5308404564857483|-0.1592716872692108|0|0|0|-1|-1|634761725.9257429|0|3.940002|99.96597|3
2021-02-11 18:42:07.113 +0000|34392.52305125001|-1.120040893554688|0.6977996826171875|-0.0207061767578125|34392.50309025|1.879879089252439|-1.398703787710844|-0.5615659972543205|-2.676068782806396|0.6890690326690674|-0.3605548441410065|-0.2579385638237|0.02856862545013428|0.1219653934240341|XArbitraryZVertical|-0.3743824438723374|0.5360646047143328|-0.6989794609968674|-0.2896556118556554|-0.8339195251464844|0.532512366771698|-0.1449450552463531|0|0|0|-1|-1|634761725.9257429|0|3.940002|99.96597|3
2021-02-11 18:42:07.133 +0000|34392.54301325|-1.083389282226562|0.6447296142578125|-0.0562896728515625|34392.52305125001|1.819016455262165|-1.418086766902174|-0.5626478733409597|-2.395270109176636|0.6523404121398926|-0.3775626718997955|-0.275371789932251|0.1735424995422363|0.103826031088829|XArbitraryZVertical|-0.3642478147961065|0.5504451740808063|-0.6864596267296422|-0.3051343220919378|-0.8360022902488708|0.5334277749061584|-0.1286672800779343|0|0|0|-1|-1|634761725.9257429|0|3.940002|99.96597|3
2021-02-11 18:42:07.153 +0000|34392.56297525|-1.032623291015625|0.6542205810546875|-0.062408447265625|34392.54301325|1.766252135382777|-1.433620258889434|-0.5614065117355994|-2.012963533401489|0.5839598774909973|-0.4056061208248138|-0.2595893740653992|0.1177080869674683|0.06177116930484772|XArbitraryZVertical|-0.3552302185641353|0.5620793112135354|-0.6752874364402619|-0.3191632300301672|-0.8385550975799561|0.5323773622512817|-0.1157566830515862|0|0|0|-1|-1|634761725.9257429|0|3.940002|99.96597|3
2021-02-11 18:42:07.173 +0000|34392.58293625|-1.01348876953125|0.6331329345703125|-0.0599212646484375|34392.56297525|1.722222675279137|-1.446928252492151|-0.5577930594221326|-1.629411339759827|0.4213688671588898|-0.4524693787097931|-0.19950270652771|0.1218538284301758|0.05198316276073456|XArbitraryZVertical|-0.3483075372406187|0.5712002355008935|-0.6653372418204709|-0.3312683327185055|-0.8419250249862671|0.5293150544166565|-0.1048243045806885|0|0|0|-1|-1|634761725.9257429|0|3.940002|99.96597|3
2021-02-11 18:42:07.193 +0000|34392.60289825|-0.990203857421875|0.595855712890625|-0.0414581298828125|34392.58293625|1.687455234570917|-1.458602183838902|-0.5512681049053991|-1.26154088973999|0.2256095856428146|-0.5563589334487915|-0.1697300672531128|0.123113214969635|0.03145444393157959|XArbitraryZVertical|-0.3441691905522286|0.5778069259609361|-0.6565999819953582|-0.3414136737270318|-0.846505343914032|0.52376788854599|-0.09537345170974731|0|0|0|-1|-1|634761725.9257429|0|3.940002|99.96597|3
2021-02-11 18:42:07.212 +0000|34392.62286025001|-1.001907348632812|0.663970947265625|-0.063232421875|34392.60289825|1.659319812048455|-1.469772135111038|-0.5419602397710652|-1.031272768974304|0.1097761392593384|-0.5696818828582764|-0.1427859663963318|0.07395106554031372|0.05745435506105423|XArbitraryZVertical|-0.3425075453232836|0.5826563971399998|-0.6485044933312112|-0.3502028919518723|-0.852331280708313|0.515816330909729|-0.08640021085739136|0|0|0|-1|-1|634761725.9257429|0|3.940002|99.96597|3
2021-02-11 18:42:07.232 +0000|34392.64282125|-1.010818481445312|0.6596527099609375|-0.072296142578125|34392.62286025001|1.637137426926781|-1.480363230009283|-0.5315296677899231|-0.7572199702262878|-0.02357701770961285|-0.6570146083831787|-0.1432139873504639|0.1506944298744202|0.0223996639251709|XArbitraryZVertical|-0.3426507865337232|0.5862298148128408|-0.6412203771748023|-0.3574374525422656|-0.8585103154182434|0.5068525671958923|-0.0778500884771347|0|0|0|-1|-1|634761725.9257429|0|3.940002|99.96597|3
2021-02-11 18:42:07.252 +0000|34392.66278325|-1.03387451171875|0.6629180908203125|-0.0906524658203125|34392.64282125|1.621822747100141|-1.489739554284359|-0.519327572701251|-0.4807124435901642|-0.1373939216136932|-0.6831610202789307|-0.1389850378036499|0.1601061820983887|-0.0006911829113960266|XArbitraryZVertical|-0.3449035486311002|0.5881285627421092|-0.6349655971349747|-0.3632701501844137|-0.8653028607368469|0.4962964653968811|-0.07029267400503159|0|0|0|-1|-1|634761725.9257429|0|3.940002|99.96597|3
2021-02-11 18:42:07.273 +0000|34392.68274425|-1.031814575195312|0.651153564453125|-0.0864715576171875|34392.66278325|1.612310220298764|-1.497637956629871|-0.5061240390758494|-0.2475476861000061|-0.1850611418485641|-0.6903408765792847|-0.1580133438110352|0.1782950460910797|-0.02107721567153931|XArbitraryZVertical|-0.348661126606812|0.5886176106337633|-0.6297498363000669|-0.3679401050372318|-0.8722906112670898|0.4847908616065979|-0.06392945349216461|0|0|0|-1|-1|634761725.9257429|0|3.940002|99.96597|3
2021-02-11 18:42:07.293 +0000|34392.70270625001|-1.022933959960938|0.6341094970703125|-0.084259033203125|34392.68274425|1.607649946049423|-1.503676008180739|-0.4926208108109907|-0.09005645662546158|-0.1957592815160751|-0.6796645522117615|-0.1561810970306396|0.1829470694065094|-0.02908539772033691|XArbitraryZVertical|-0.3533222690300014|0.5878910042044008|-0.6256160938910195|-0.371688220150408|-0.8791125416755676|0.4729366898536682|-0.05909508094191551|0|0|0|-1|-1|634761725.9257429|0|3.940002|99.96597|3
2021-02-11 18:42:07.312 +0000|34392.72266825|-1.0150146484375|0.5913848876953125|-0.0771636962890625|34392.70270625001|1.605991208624218|-1.508788096237974|-0.4792643441076092|0.02062620408833027|-0.2351208478212357|-0.6571159362792969|-0.1366792917251587|0.17594313621521|-0.03722202777862549|XArbitraryZVertical|-0.3585040112962831|0.5864993431493306|-0.6221627335504469|-0.374709254358633|-0.8856291174888611|0.4611265361309052|-0.05498678982257843|0|0|0|-1|-1|634761725.9257429|0|3.940002|99.96597|3
2021-02-11 18:42:07.333 +0000|34392.74262925|-1.00091552734375|0.576385498046875|-0.0800018310546875|34392.72266825|1.606203982635326|-1.513457149476946|-0.4668763505915961|0.0545625165104866|-0.2492581903934479|-0.5814176201820374|-0.1271962523460388|0.1549575626850128|-0.02214383333921432|XArbitraryZVertical|-0.3637755683176125|0.5848760854669989|-0.6192521059351659|-0.3769801842872207|-0.8915109634399414|0.4500991404056549|-0.0511745996773243|0|0|0|-1|-1|634761725.9257429|0|3.940002|99.96597|3
2021-02-11 18:42:07.353 +0000|34392.76259125|-1.000396728515625|0.550811767578125|-0.0924224853515625|34392.74262925|1.606467135264854|-1.51849139743424|-0.4559640759762144|0.0409906804561615|-0.2668372392654419|-0.5104867815971375|-0.1072514057159424|0.1363473236560822|-0.03217685222625732|XArbitraryZVertical|-0.3687035055852669|0.583598987871|-0.6164962415416606|-0.37868512182279|-0.8966091871261597|0.4403280913829803|-0.04693989083170891|0|0|0|-1|-1|634761725.9257429|0|3.940002|99.96597|3
2021-02-11 18:42:07.372 +0000|34392.78255225|-0.9954986572265625|0.53509521484375|-0.0729217529296875|34392.76259125|1.607090064306423|-1.523733084032661|-0.446408523882755|0.05863448977470398|-0.2730545997619629|-0.4428517520427704|-0.09908682107925415|0.1287875175476074|-0.05248934030532837|XArbitraryZVertical|-0.3733699247162801|0.5825608361987965|-0.6139705581841293|-0.3798131333307845|-0.9010047912597656|0.4317288100719452|-0.04243554174900055|0|0|0|-1|-1|634761725.9257429|0|3.940002|99.96597|3
2021-02-11 18:42:07.392 +0000|34392.80251425|-0.9711151123046875|0.5319976806640625|-0.0753631591796875|34392.78255225|1.607303136194826|-1.528600663479951|-0.4383145763967224|-0.000212998827919364|-0.2212520092725754|-0.3731718361377716|-0.09407120943069458|0.1109406352043152|-0.03576385974884033|XArbitraryZVertical|-0.3773458476911556|0.581818151102075|-0.6116652028688062|-0.3807407257885668|-0.9046623706817627|0.4244139790534973|-0.03819550201296806|0|0|0|-1|-1|634761725.9257429|0|3.940002|99.96597|3
2021-02-11 18:42:07.423 +0000|34392.82247625|-0.9719696044921875|0.524139404296875|-0.0645904541015625|34392.80251425|1.606984676731795|-1.532964919760831|-0.4312604680918506|0.0082282405346632|-0.2075519114732742|-0.3320824205875397|-0.06619417667388916|0.112623393535614|-0.0445285402238369|XArbitraryZVertical|-0.3806889873009088|0.5812884145851963|-0.6095160137703484|-0.3816672021248288|-0.9077895283699036|0.4180161952972412|-0.03435934707522392|0|0|0|-1|-1|634761725.9257429|0|3.940002|99.96597|3
2021-02-11 18:42:07.434 +0000|34392.84243725|-0.9658660888671875|0.5095367431640625|-0.0749053955078125|34392.82247625|1.607472524159266|-1.53665750059154|-0.424952629369668|0.07181078195571899|-0.1829013824462891|-0.308357834815979|-0.06235772371292114|0.1143489181995392|-0.03263950347900391|XArbitraryZVertical|-0.3838288519361326|0.5806265603810501|-0.6077653692039051|-0.3823211900264023|-0.9105274677276611|0.4122776389122009|-0.03109641931951046|0|0|0|-1|-1|634761725.9257429|0|3.940002|99.96597|3
2021-02-11 18:42:07.452 +0000|34392.86239925|-0.9664459228515625|0.4559783935546875|-0.0644683837890625|34392.84243725|1.609995441270599|-1.53933283679406|-0.4186663218577148|0.1747661232948303|-0.1898762434720993|-0.3079037964344025|-0.05138933658599854|0.1090826690196991|-0.04724740982055664|XArbitraryZVertical|-0.3872341695181157|0.5793781519281964|-0.6065903857919454|-0.3826471586251467|-0.913179874420166|0.4065423309803009|-0.02874130941927433|0|0|0|-1|-1|634761725.9257429|0|3.940002|99.96597|3
2021-02-11 18:42:07.472 +0000|34392.88236125001|-0.9334259033203125|0.439666748046875|-0.04351806640625|34392.86239925|1.613451901333981|-1.541601541532722|-0.412680825418732|0.1337314397096634|-0.1699108481407166|-0.2788074314594269|-0.05313718318939209|0.07110139727592468|-0.04427433013916016|XArbitraryZVertical|-0.3906874808294185|0.5779215032646232|-0.6057183074367075|-0.3827211655926862|-0.915658712387085|0.4010665416717529|-0.0267400573939085|0|0|0|-1|-1|634761725.9257429|0|3.940002|99.96597|3
2021-02-11 18:42:07.492 +0000|34392.90232225|-0.912109375|0.422760009765625|-0.030548095703125|34392.88236125001|1.615279993625957|-1.543982860426118|-0.4072716375045962|0.05950379744172096|-0.1560922861099243|-0.2602031826972961|-0.02687299251556396|0.04250824451446533|-0.02578240633010864|XArbitraryZVertical|-0.393525893740844|0.5769130922081405|-0.6046099569292338|-0.3830868502462408|-0.9178749918937683|0.3961056172847748|-0.02461731061339378|0|0|0|-1|-1|634761725.9257429|0|3.940002|99.96597|3
2021-02-11 18:42:07.512 +0000|34392.92228425|-0.9271087646484375|0.43072509765625|-0.026458740234375|34392.90232225|1.61621892374923|-1.54721150193364|-0.4022624095009123|0.04721252247691154|-0.2043994665145874|-0.2384188920259476|0.007949650287628174|0.03904074430465698|-0.008710501715540886|XArbitraryZVertical|-0.3962394732180651|0.5763195051948387|-0.603229245268843|-0.3833595840168817|-0.9199216961860657|0.3915011584758759|-0.02170021645724773|0|0|0|-1|-1|634761725.9257429|0|3.940002|99.96597|3
2021-02-11 18:42:07.532 +0000|34392.94224525|-0.92510986328125|0.43243408203125|-0.0243072509765625|34392.92228425|1.617077352795611|-1.551100156654213|-0.3977064733959965|0.06999056041240692|-0.2037888765335083|-0.2205003350973129|-0.002512991428375244|0.04003280401229858|-0.009018063545227051|XArbitraryZVertical|-0.3989892101646823|0.5759589720522199|-0.6017760650577757|-0.3833334308722025|-0.9217729568481445|0.3873048424720764|-0.01815774478018284|0|0|0|-1|-1|634761725.9257429|0|3.940002|99.96597|3
2021-02-11 18:42:07.552 +0000|34392.96220725|-0.912078857421875|0.404541015625|-0.00970458984375|34392.94224525|1.61955296564739|-1.554117756864241|-0.3935167327044201|0.1617444306612015|-0.1901025772094727|-0.1957638412714005|-0.002495944499969482|0.05372560024261475|-0.01409214735031128|XArbitraryZVertical|-0.401829066921698|0.5751798627464817|-0.600865607970048|-0.3829649293574457|-0.9234379529953003|0.3834387063980103|-0.01540305279195309|0|0|0|-1|-1|634761725.9257429|0|3.940002|99.96597|3
2021-02-11 18:42:07.572 +0000|34392.98216791667|-0.8927001953125|0.38580322265625|-0.021331787109375|34392.96220725|1.624031307868368|-1.555263206151555|-0.3907394479039523|0.2319878786802292|-0.1688502132892609|-0.1600792557001114|0.007096767425537109|0.03259521722793579|0.002109048888087273|XArbitraryZVertical|-0.4042659996353949|0.5739234370849264|-0.6009730896836406|-0.3821157969579805|-0.9245163798332214|0.3808722198009491|-0.01436178013682365|0|0|0|-1|-1|634761725.9257429|0|3.940002|99.96597|3
2021-02-11 18:42:07.592 +0000|34393.00212891667|-0.925628662109375|0.3795013427734375|-0.014129638671875|34392.98216791667|1.62988054519078|-1.556320013936134|-0.3887540515809967|0.2774426639080048|-0.2052864730358124|-0.1461478173732758|0.03203558921813965|0.005974024534225464|-0.00612032413482666|XArbitraryZVertical|-0.4068348866873153|0.5725273344269453|-0.6015041234544694|-0.3806450524409032|-0.9252851009368896|0.3790357410907745|-0.01339565217494965|0|0|0|-1|-1|634761725.9257429|0|3.940002|99.96597|3
2021-02-11 18:42:07.612 +0000|34393.02209091667|-0.9290771484375|0.4071502685546875|-0.008026123046875|34393.00212891667|1.635636725648595|-1.557949500311883|-0.3867228526706754|0.2449433952569962|-0.1935154497623444|-0.1306113749742508|0.01083624362945557|0.003566712141036987|-0.001331567764282227|XArbitraryZVertical|-0.4095570500705802|0.5712391279770458|-0.6018869992992796|-0.3790528003925925|-0.9260737299919128|0.3771553039550781|-0.01189776323735714|0|0|0|-1|-1|634761725.9257429|0|3.940002|99.96597|3
2021-02-11 18:42:07.632 +0000|34393.04205291667|-0.909637451171875|0.4213104248046875|-0.01593017578125|34393.02209091667|1.640813239483249|-1.559083008605876|-0.3852901688586604|0.229949951171875|-0.1539518088102341|-0.1159595549106598|-0.004511237144470215|0.0193745493888855|0.003148674964904785|XArbitraryZVertical|-0.4117874543112995|0.5700911440006876|-0.6023674614198897|-0.3775985136833854|-0.9266258478164673|0.3758280575275421|-0.01085435971617699|0|0|0|-1|-1|634761725.9257429|0|3.940002|99.96597|3
2021-02-11 18:42:07.652 +0000|34393.06201391667|-0.9169921875|0.381256103515625|-0.009368896484375|34393.04205291667|1.646450067562878|-1.559831822348824|-0.3836832952556391|0.2846356928348541|-0.1574338376522064|-0.1203650385141373|0.01311290264129639|0.05180901288986206|-0.006159723736345768|XArbitraryZVertical|-0.4140787626945845|0.5687312453787006|-0.6029775260813495|-0.376167356433325|-0.9272366166114807|0.3743384778499603|-0.01016709767282009|0|0|0|-1|-1|634761725.9257429|0|3.940002|99.96597|3
2021-02-11 18:42:07.672 +0000|34393.08197591667|-0.910186767578125|0.3726654052734375|-0.008087158203125|34393.06201391667|1.652465808742974|-1.560642498201787|-0.3820335137244829|0.2408498078584671|-0.1507670432329178|-0.09197051078081131|0.01494252681732178|0.01508554816246033|-0.003243089653551579|XArbitraryZVertical|-0.416503604966109|0.5672864490710181|-0.6036336221623966|-0.3746164389809217|-0.9278607964515686|0.3728081583976746|-0.009421663358807564|0|0|0|-1|-1|634761725.9257429|0|3.940002|99.96597|3
2021-02-11 18:42:07.692 +0000|34393.10193691667|-0.8891448974609375|0.3780975341796875|-0.00604248046875|34393.08197591667|1.656723962212149|-1.561412929945567|-0.3807077064997621|0.1614933907985687|-0.1090682223439217|-0.07913442701101303|0.01289474964141846|0.0007978975772857666|-0.0005048522725701332|XArbitraryZVertical|-0.4183210461822132|0.5662612327260632|-0.6040249440932698|-0.3735100388346616|-0.928361177444458|0.3715775907039642|-0.008711437694728374|0|0|0|-1|-1|634761725.9257429|0|3.940002|99.96597|3
2021-02-11 18:42:07.712 +0000|34393.12189891667|-0.904632568359375|0.367645263671875|-0.0122528076171875|34393.10193691667|1.65982564079441|-1.562563058453782|-0.3795354075134621|0.1302314698696136|-0.1300570666790009|-0.06868799775838852|0.03802782297134399|0.004861891269683838|0.0006893877871334553|XArbitraryZVertical|-0.4198797531911703|0.5655770101228055|-0.6041467118768368|-0.3725995368842797|-0.928805410861969|0.3704889714717865|-0.007647276856005192|0|0|0|-1|-1|634761725.9257429|0|3.940002|99.96597|3
2021-02-11 18:42:07.732 +0000|34393.14186091667|-0.9148712158203125|0.3740692138671875|-0.0114593505859375|34393.12189891667|1.662286836591496|-1.564325007728176|-0.3792576281501318|0.08760003000497818|-0.1455941051244736|-0.05878148227930069|0.03019291162490845|0.003014206886291504|-0.005005358718335629|XArbitraryZVertical|-0.4211867841154517|0.5653282066710267|-0.604182933787725|-0.3714413271456609|-0.9289202690124512|0.3702309429645538|-0.00601142318919301|0|0|0|-1|-1|634761725.9257429|0|3.940002|99.96597|3
2021-02-11 18:42:07.752 +0000|34393.16182191667|-0.9012451171875|0.3655853271484375|-0.0022125244140625|34393.14186091667|1.663664336769631|-1.566188546230061|-0.3788847129747739|0.05138366669416428|-0.1073917597532272|-0.05086390301585197|0.01283860206604004|-0.002849578857421875|-0.005270958412438631|XArbitraryZVertical|-0.4222447474889249|0.5653042431185734|-0.6039769834084456|-0.3706108761250524|-0.9290680289268494|0.3698845207691193|-0.004280971828848124|0|0|0|-1|-1|634761725.9257429|0|3.940002|99.96597|3
2021-02-11 18:42:07.772 +0000|34393.18178391667|-0.90179443359375|0.3560028076171875|0.0066070556640625|34393.16182191667|1.665353592889778|-1.567466112390761|-0.3781226275440419|0.09656299650669098|-0.09469439089298248|-0.0376896932721138|0.02559137344360352|0.005594730377197266|-0.004976868163794279|XArbitraryZVertical|-0.4233238454934186|0.5650216295328245|-0.603879384665699|-0.3699690720175395|-0.9293541312217712|0.3691763579845428|-0.003094960004091263|0|0|0|-1|-1|634761725.9257429|0|3.940002|99.96597|3
2021-02-11 18:42:07.791 +0000|34393.20174591667|-0.9261016845703125|0.363067626953125|0.003662109375|34393.18178391667|1.667750857064681|-1.568361598431678|-0.3777469813532413|0.1212687790393829|-0.09952781349420547|-0.0348479188978672|0.02867740392684937|-0.01639500260353088|0.008534431457519531|XArbitraryZVertical|-0.42437751187483|0.5645991417723696|-0.6040634819111909|-0.3691055806805125|-0.9294952750205994|0.368827223777771|-0.002263073110952973|0|0|0|-1|-1|634761725.9257429|0|3.940002|99.96597|3
2021-02-11 18:42:07.812 +0000|34393.22170691667|-0.948638916015625|0.36334228515625|0.01629638671875|34393.20174591667|1.670619660153257|-1.569144213154416|-0.3773840263609384|0.1404233872890472|-0.09363487362861633|-0.03604696691036224|0.01019686460494995|-0.002614647150039673|0.001902103540487587|XArbitraryZVertical|-0.4255259968465951|0.5640564667689576|-0.6043592269882141|-0.3681274727926651|-0.9296305179595947|0.3684898316860199|-0.001535856630653143|0|0|0|-1|-1|634761725.9257429|0|3.940002|99.96597|3
2021-02-11 18:42:07.831 +0000|34393.24166891667|-0.94744873046875|0.364837646484375|0.0243377685546875|34393.22170691667|1.673476256522425|-1.569671285963482|-0.3768114293918193|0.1100664511322975|-0.07717909663915634|-0.0261407159268856|-0.01484483480453491|-0.006781995296478271|0.01493167877197266|XArbitraryZVertical|-0.4266520404716606|0.5634225599190242|-0.6046670834359688|-0.3672883828830434|-0.9298419952392578|0.3679574728012085|-0.001046110643073916|0|0|0|-1|-1|634761725.9257429|0|3.940002|99.96597|3
2021-02-11 18:42:07.851 +0000|34393.26163091667|-0.9435272216796875|0.3560333251953125|0.0210113525390625|34393.24166891667|1.675514145340244|-1.570229769187561|-0.3768208054519825|0.07993984222412109|-0.07638330012559891|-0.007967127487063408|-0.01890671253204346|-0.003586292266845703|0.02352190017700195|XArbitraryZVertical|-0.4273921553108301|0.5630919479224991|-0.6049234580171038|-0.3665121813786777|-0.9298391938209534|0.3679662048816681|-0.0005268075037747622|0|0|0|-1|-1|634761725.9257429|0|3.940002|99.96597|3
2021-02-11 18:42:07.871 +0000|34393.28159191667|-0.951202392578125|0.3452301025390625|0.00372314453125|34393.26163091667|1.676838963201679|-1.571690389320131|-0.3766619059669314|0.04069004207849503|-0.1083450093865395|-0.01020089909434319|-0.0114327073097229|-0.008184075355529785|0.02521538734436035|XArbitraryZVertical|-0.4282516774874807|0.563041911370129|-0.6048243897524345|-0.3657481553875341|-0.9298971891403198|0.3678184449672699|0.0008313864818774164|0|0|0|-1|-1|634761725.9257429|0|3.940002|99.96597|3
2021-02-11 18:42:07.891 +0000|34393.30155391667|-0.9389190673828125|0.3409271240234375|0.00146484375|34393.28159191667|1.677326166004431|-1.573820746036278|-0.3765632952911644|0.008178255520761013|-0.1092950105667114|0.003617623122408986|-0.01973164081573486|-0.01923131942749023|0.001078605419024825|XArbitraryZVertical|-0.4290606496299821|0.5633056112268666|-0.6044387254151041|-0.3650308091598973|-0.9299295544624329|0.367726743221283|0.002812505466863513|0|0|0|-1|-1|634761725.9257429|0|3.940002|99.96597|3
2021-02-11 18:42:07.911 +0000|34393.32151491667|-0.924774169921875|0.3592071533203125|0.005645751953125|34393.30155391667|1.676787834238873|-1.576189243165074|-0.3765526922322203|-0.04399867728352547|-0.09308749437332153|0.008091467432677746|-0.01297736167907715|-0.02869716286659241|-0.006449342239648104|XArbitraryZVertical|-0.4296273757752646|0.5638509058135708|-0.6038301450207084|-0.3645292259858809|-0.9299241900444031|0.3677168786525726|0.005015051923692226|0|0|0|-1|-1|634761725.9257429|0|3.940002|99.96597|3
2021-02-11 18:42:07.931 +0000|34393.34147691667|-0.9222412109375|0.3365478515625|0.018463134765625|34393.32151491667|1.676252453195244|-1.578307753885431|-0.3763393245477008|0.01304463297128677|-0.08406816422939301|-0.01127370819449425|0.003262758255004883|-0.01134780049324036|-0.002209663391113281|XArbitraryZVertical|-0.4301755323424725|0.5643065245935751|-0.6032380409877491|-0.3641581742381877|-0.9299901723861694|0.3675184547901154|0.006985684856772423|0|0|0|-1|-1|634761725.9257429|0|3.940002|99.96597|3
2021-02-11 18:42:07.951 +0000|34393.36143891667|-0.9208526611328125|0.338226318359375|0.007598876953125|34393.34147691667|1.676907975672197|-1.580039926495534|-0.3757594810187487|0.05329744517803192|-0.07974015176296234|-0.02150699310004711|0.00878751277923584|-0.02420571446418762|0.008979678153991699|XArbitraryZVertical|-0.4310455296814149|0.5643571775088582|-0.6028774905050054|-0.3636476079708952|-0.9301895499229431|0.3669791221618652|0.008598544634878635|0|0|0|-1|-1|634761725.9257429|0|3.940002|99.96597|3
2021-02-11 18:42:07.972 +0000|34393.38139991667|-0.93194580078125|0.3362274169921875|0.004730224609375|34393.36143891667|1.677968710017214|-1.581356888519404|-0.3748073983746039|0.05495120584964752|-0.09497668594121933|-0.03322117403149605|0.0108942985534668|-0.02884358167648315|0.005004405044019222|XArbitraryZVertical|-0.4320086084935674|0.564165033421411|-0.6026104025382157|-0.3632452277482529|-0.9305262565612793|0.3660933077335358|0.009827245958149433|0|0|0|-1|-1|634761725.9257429|0|3.940002|99.96597|3
2021-02-11 18:42:07.991 +0000|34393.40136191667|-0.923919677734375|0.326751708984375|0.008270263671875|34393.38139991667|1.67894925346219|-1.582736557335867|-0.3736536214450443|0.02483191713690758|-0.09050507843494415|-0.02170948311686516|0.001429200172424316|-0.02441266179084778|-0.005867003463208675|XArbitraryZVertical|-0.433023716891815|0.5639578942233234|-0.6022769821619126|-0.3629112251341922|-0.9309337139129639|0.3650193810462952|0.0111160920932889|0|0|0|-1|-1|634761725.9257429|0|3.940002|99.96597|3
2021-02-11 18:42:08.011 +0000|34393.42132391667|-0.917022705078125|0.33831787109375|0.0129547119140625|34393.40136191667|1.67881560146306|-1.584164794507649|-0.3730887858917959|-0.03175602853298187|-0.06771587580442429|-0.01152324676513672|0.001221597194671631|-0.03691780567169189|-0.003384591080248356|XArbitraryZVertical|-0.4335740119845394|0.564125685267011|-0.6018387820959349|-0.3627200433156863|-0.9311227202415466|0.3644934594631195|0.01244842540472746|0|0|0|-1|-1|634761725.9257429|0|3.940002|99.96597|3
2021-02-11 18:42:08.031 +0000|34393.44128491667|-0.936920166015625|0.3546142578125|0.003143310546875|34393.42132391667|1.677950120014336|-1.585957708326755|-0.3725793891888293|-0.03923871368169785|-0.08685777336359024|-0.02144130319356918|0.01587915420532227|-0.03073656558990479|-0.003225801512598991|XArbitraryZVertical|-0.434011387004582|0.5645302804701448|-0.6011985964307223|-0.3626293831586368|-0.9312846064567566|0.3640190660953522|0.01412064302712679|0|0|0|-1|-1|634761725.9257429|0|3.940002|99.96597|3
2021-02-11 18:42:08.051 +0000|34393.46124691667|-0.9466705322265625|0.34381103515625|-0.0166473388671875|34393.44128491667|1.677566056345392|-1.587863910966619|-0.3717501958297704|-0.001006004749797285|-0.08373622596263885|-0.02017514780163765|-0.0006784200668334961|-0.009700506925582886|-0.005036709830164909|XArbitraryZVertical|-0.4347073065853727|0.5647831862298445|-0.6005609256877094|-0.3624585885485589|-0.9315574765205383|0.3632466197013855|0.0159009788185358|0|0|0|-1|-1|634761725.9257429|0|3.940002|99.96597|3
2021-02-11 18:42:08.071 +0000|34393.48120791667|-0.947296142578125|0.3454742431640625|-0.018096923828125|34393.46124691667|1.677801315113642|-1.589146282391585|-0.3710639884462414|-0.002298736479133368|-0.07139673829078674|-0.008853605017066002|-0.0121845006942749|-0.01728558540344238|-0.02849841117858887|XArbitraryZVertical|-0.4353502643440919|0.5648187463569714|-0.6001968681643234|-0.3622343874634877|-0.9317852854728699|0.3626072108745575|0.0171001385897398|0|0|0|-1|-1|634761725.9257429|0|3.940002|99.96597|3
2021-02-11 18:42:08.091 +0000|34393.50116991667|-0.9343414306640625|0.3404998779296875|-0.0065460205078125|34393.48120791667|1.677588277198684|-1.590147327654249|-0.3703463316328162|-0.02511235699057579|-0.03976946324110031|0.00302870967425406|-0.01629096269607544|-0.01463305950164795|-0.03804218769073486|XArbitraryZVertical|-0.4357906499443158|0.5648942091731276|-0.5998064583862366|-0.3622336611066075|-0.9320274591445923|0.3619382977485657|0.01803791709244251|0|0|0|-1|-1|634761725.9257429|0|3.940002|99.96597|3
2021-02-11 18:42:08.111 +0000|34393.52113191667|-0.935638427734375|0.3396453857421875|0.01025390625|34393.50116991667|1.676942364880571|-1.590856140329445|-0.3700389904298743|-0.03409751132130623|-0.03455275669693947|0.01385641284286976|-0.004672408103942871|-0.01938188076019287|-0.02738296985626221|XArbitraryZVertical|-0.4359063674520817|0.5650982461277018|-0.5994776559973104|-0.3623206542105711|-0.9321258068084717|0.3616517782211304|0.01870077848434448|0|0|0|-1|-1|634761725.9257429|0|3.940002|99.96597|3
2021-02-11 18:42:08.131 +0000|34393.54109291667|-0.942413330078125|0.3485260009765625|0.0067901611328125|34393.52113191667|1.676232492876968|-1.591726183973166|-0.3701796710620826|-0.02683906629681587|-0.03379721939563751|0.01592888496816158|-0.001459240913391113|-0.02247330546379089|-0.009928109124302864|XArbitraryZVertical|-0.4359272372002588|0.5654403517007622|-0.5991857168282266|-0.3622446587319922|-0.9320582151412964|0.3617829382419586|0.01951069571077824|0|0|0|-1|-1|634761725.9257429|0|3.940002|99.96597|3
2021-02-11 18:42:08.151 +0000|34393.56105491667|-0.9357452392578125|0.3419036865234375|-0.0009613037109375|34393.54109291667|1.676118127627796|-1.591804146908982|-0.3701991940781889|0.003971160389482975|-0.01805783063173294|0.01707768253982067|-0.00912773609161377|-0.0137939453125|-0.01201486587524414|XArbitraryZVertical|-0.4359128019963646|0.5654835415759447|-0.5991516722156619|-0.3622509808947812|-0.9320496916770935|0.3618011474609375|0.01958321407437325|0|0|0|-1|-1|634761725.9257429|0|3.940002|99.96597|3
2021-02-11 18:42:08.178 +0000|34393.58101691667|-0.930084228515625|0.35089111328125|-0.005126953125|34393.56105491667|1.676672381194003|-1.590970206270883|-0.370148236508881|0.0128939151763916|0.001189686823636293|0.01937821134924889|-0.006163597106933594|-0.01717966794967651|-0.01734137535095215|XArbitraryZVertical|-0.4358338100540933|0.565200886297555|-0.599424284579378|-0.362336094168167|-0.9320840835571289|0.3617536425590515|0.01880630291998386|0|0|0|-1|-1|634761725.9257429|0|3.940002|99.96597|3
2021-02-11 18:42:08.191 +0000|34393.60097791667|-0.941162109375|0.339202880859375|-0.0030670166015625|34393.58101691667|1.676922438593617|-1.590145101495412|-0.3700283448735997|-0.006168742664158344|0.01479838788509369|0.008679937571287155|0.001173317432403564|-0.01116275787353516|-0.02324128150939941|XArbitraryZVertical|-0.4356905667593171|0.5649714724206824|-0.5996269807679617|-0.3625307064650546|-0.9321426749229431|0.3616418540477753|0.01803806982934475|0|0|0|-1|-1|634761725.9257429|0|3.940002|99.96597|3
2021-02-11 18:42:08.211 +0000|34393.62093991667|-0.9387969970703125|0.347381591796875|-0.001953125|34393.60097791667|1.676590988353295|-1.589608656488958|-0.3697802611757003|-0.03361508250236511|0.0319855734705925|0.006487090606242418|-0.00699770450592041|-0.01903390884399414|-0.0234906692057848|XArbitraryZVertical|-0.4355053526777493|0.5648937436983256|-0.5996373562840214|-0.36285688044994|-0.9322417378425598|0.3614105582237244|0.01753970794379711|0|0|0|-1|-1|634761725.9257429|0|3.940002|99.96597|3
2021-02-11 18:42:08.231 +0000|34393.64090191667|-0.939666748046875|0.3676605224609375|-0.008087158203125|34393.62093991667|1.675840308550446|-1.588774282698033|-0.3693899878323755|-0.03572035580873489|0.05861058458685875|-0.008518046699464321|-0.006308376789093018|-0.01976856589317322|-0.01854968070983887|XArbitraryZVertical|-0.4351520420457069|0.5648228932884942|-0.5996098272892979|-0.363436282875487|-0.9323971271514893|0.3610466420650482|0.01676440052688122|0|0|0|-1|-1|634761725.9257429|0|3.940002|99.96597|3
2021-02-11 18:42:08.251 +0000|34393.66086291667|-0.944061279296875|0.35546875|-0.0052947998046875|34393.64090191667|1.675379503170365|-1.587434949164749|-0.3686744741923508|-0.01393994595855474|0.07149836421012878|-0.02964676730334759|-0.005815029144287109|0.004046350717544556|-0.02269148826599121|XArbitraryZVertical|-0.4348201082489991|0.5645276063538982|-0.5996836729456508|-0.3641697798933159|-0.9326768517494202|0.3603792786598206|0.01551989000290632|0|0|0|-1|-1|634761725.9257429|0|3.940002|99.96597|3
2021-02-11 18:42:08.271 +0000|34393.68082491667|-0.9356689453125|0.3387298583984375|-0.0034332275390625|34393.66086291667|1.675087747378126|-1.58545427164808|-0.3680311499765495|-0.04205097630620003|0.09660504758358002|-0.01175893656909466|-0.01145970821380615|-0.001365453004837036|-0.02028298377990723|XArbitraryZVertical|-0.4343234453965478|0.564093171649955|-0.599940746282688|-0.365011192175718|-0.9329373240470886|0.3597791194915771|0.01367592345923185|0|0|0|-1|-1|634761725.9257429|0|3.940002|99.96597|3
2021-02-11 18:42:08.291 +0000|34393.70078591667|-0.939910888671875|0.3348236083984375|0.0013427734375|34393.68082491667|1.674029496346794|-1.583315036860472|-0.3676190422443594|-0.07984662801027298|0.1129347011446953|-0.002310573123395443|-0.002876818180084229|-0.02028331160545349|-0.01375711057335138|XArbitraryZVertical|-0.4334984157952043|0.5638440487470193|-0.6001345440439231|-0.3660567070174391|-0.9331125617027283|0.3593945801258087|0.01168197579681873|0|0|0|-1|-1|634761725.9257429|0|3.940002|99.96597|3
2021-02-11 18:42:08.311 +0000|34393.72074791667|-0.9344482421875|0.3509979248046875|0.0101470947265625|34393.70078591667|1.672206237683941|-1.581321874569081|-0.3672442216883086|-0.09177802503108978|0.1391932517290115|0.004027039743959904|-0.00650489330291748|-0.02327519655227661|-0.009243608452379704|XArbitraryZVertical|-0.4324911783471895|0.5637935295390644|-0.6001618751678631|-0.3672791551224364|-0.933268666267395|0.3590447604656219|0.009823526255786419|0|0|0|-1|-1|634761725.9257429|0|3.940002|99.96597|3
2021-02-11 18:42:08.330 +0000|34393.74070991667|-0.932952880859375|0.3796539306640625|0.0175933837890625|34393.72074791667|1.670285074801384|-1.578755077840574|-0.367248918666849|-0.08766882866621017|0.1609679013490677|0.002099621342495084|-0.003264844417572021|-0.01348337531089783|0.000231980811804533|XArbitraryZVertical|-0.431177939806909|0.5637371466631269|-0.6003635448792778|-0.3685778836847459|-0.933289110660553|0.3590491712093353|0.007427972741425037|0|0|0|-1|-1|634761725.9257429|0|3.940002|99.96597|3
2021-02-11 18:42:08.350 +0000|34393.76067091667|-0.93896484375|0.374725341796875|0.024169921875|34393.74070991667|1.668802995382624|-1.575701918296792|-0.3672087793853148|-0.04482452571392059|0.1708605289459229|-0.005544450134038925|0.001269221305847168|0.01675117015838623|0.007537006866186857|XArbitraryZVertical|-0.4298547703869791|0.5634839327793207|-0.6007396470123424|-0.3698953742940804|-0.9333218336105347|0.359011709690094|0.004578532185405493|0|0|0|-1|-1|634761725.9257429|0|3.940002|99.96597|3
2021-02-11 18:42:08.370 +0000|34393.78063291667|-0.93939208984375|0.365814208984375|0.0314788818359375|34393.76067091667|1.668104833702624|-1.572450289507431|-0.3669190000223071|-0.01401499658823013|0.1673100590705872|0.006683099083602428|-0.005605340003967285|0.02097374200820923|0.02332806587219238|XArbitraryZVertical|-0.4287624291347743|0.5629695499562626|-0.6012543815053087|-0.3711083059692467|-0.9334359169006348|0.3587412238121033|0.001543869613669813|0|0|0|-1|-1|634761725.9257429|0|3.940002|99.96597|3
2021-02-11 18:42:08.390 +0000|34393.80059491667|-0.9412689208984375|0.354949951171875|0.0025482177734375|34393.78063291667|1.667820752331381|-1.569320227456912|-0.3668119650669082|-0.02304414659738541|0.1549078822135925|0.0169511828571558|-0.004712224006652832|0.007417023181915283|0.03462684154510498|XArbitraryZVertical|-0.4277711656653655|0.5624258873112054|-0.6018519591384813|-0.3721065871732072|-0.933474600315094|0.3586412966251373|-0.001377902226522565|0|0|0|-1|-1|634761725.9257429|0|3.940002|99.96597|3
2021-02-11 18:42:08.410 +0000|34393.82055591667|-0.9399566650390625|0.3406829833984375|-0.0153961181640625|34393.80059491667|1.667424743417591|-1.566749149787291|-0.3667779638857857|-0.01272709295153618|0.1288735717535019|0.02053721807897091|-0.007422685623168945|-0.001157194375991821|0.01070559024810791|XArbitraryZVertical|-0.4268954526228785|0.5620242724375308|-0.6023212079194418|-0.3729586572364231|-0.9334800243377686|0.3586095571517944|-0.003777979407459497|0|0|0|-1|-1|634761725.9257429|0|3.940002|99.96597|3
2021-02-11 18:42:08.430 +0000|34393.84051791667|-0.9478607177734375|0.3615264892578125|-0.011993408203125|34393.82055591667|1.666614275327987|-1.564874369745686|-0.3674784003393037|-0.05107378214597702|0.1195536777377129|0.02565963193774223|-0.008262693881988525|-0.01525402069091797|-0.001278817187994719|XArbitraryZVertical|-0.4259054617086089|0.561997563665701|-0.6026993792756714|-0.3735193202218871|-0.9332197904586792|0.3592633306980133|-0.005526552442461252|0|0|0|-1|-1|634761725.9257429|0|3.940002|99.96597|3
2021-02-11 18:42:08.450 +0000|34393.86047891667|-0.942535400390625|0.3662872314453125|0.0119476318359375|34393.84051791667|1.665222885466336|-1.563571915805416|-0.368318016774584|-0.04866265505552292|0.1237706243991852|0.0194162055850029|-0.01313501596450806|-0.007004261016845703|-0.009922681376338005|XArbitraryZVertical|-0.4248848576730371|0.5622303239260962|-0.6028717202187295|-0.3740528252741189|-0.9329097867012024|0.360046774148941|-0.006739841308444738|0|0|0|-1|-1|634761725.9257429|0|3.940002|99.96597|3
2021-02-11 18:42:08.470 +0000|34393.88044091667|-0.9324798583984375|0.3598175048828125|0.0181427001953125|34393.86047891667|1.664452566639471|-1.561886812471|-0.3688946456467338|0.001075022388249636|0.1312790364027023|0.02750768698751926|-0.01489651203155518|0.00930359959602356|0.01676344871520996|XArbitraryZVertical|-0.4239972103277854|0.5622022324055956|-0.6031918216579037|-0.3745860945545227|-0.9326895475387573|0.3605846464633942|-0.008310031145811081|0|0|0|-1|-1|634761725.9257429|0|3.940002|99.96597|3
2021-02-11 18:42:08.491 +0000|34393.90040291667|-0.937652587890625|0.34808349609375|0.019622802734375|34393.88044091667|1.66475356921378|-1.559918268718421|-0.3693825530606184|0.04354551434516907|0.1078844889998436|0.03053463622927666|-0.0003202557563781738|-0.003068536520004272|0.02746295928955078|XArbitraryZVertical|-0.4233498119873224|0.5618744230603463|-0.6037552857572808|-0.3749022632308241|-0.9324953556060791|0.3610396981239319|-0.01014413870871067|0|0|0|-1|-1|634761725.9257429|0|3.940002|99.96597|3
2021-02-11 18:42:08.510 +0000|34393.92036391667|-0.92291259765625|0.3538970947265625|0.0071258544921875|34393.90040291667|1.665864998210482|-1.557523837548519|-0.3696605792887487|0.05657752975821495|0.1107903197407722|0.02961433678865433|-0.006337583065032959|-0.006257534027099609|0.03073191829025745|XArbitraryZVertical|-0.4228599558675842|0.5612500988158425|-0.60452138949394|-0.3751554324865148|-0.9323678016662598|0.3612989485263824|-0.01237556897103786|0|0|0|-1|-1|634761728.4859524|0|3.790009|99.96639|3
2021-02-11 18:42:08.530 +0000|34393.94032591667|-0.9200592041015625|0.3630828857421875|0.005828857421875|34393.92036391667|1.667055583629212|-1.554881764572108|-0.3697864250177141|0.05268105864524841|0.09784139692783356|0.01827237755060196|0.005986392498016357|-0.01612523198127747|0.02559566497802734|XArbitraryZVertical|-0.4223590803588415|0.5605298525873353|-0.6053262086172763|-0.3754986382378178|-0.9322864413261414|0.3614163100719452|-0.01483818329870701|0|0|0|-1|-1|634761728.4859524|0|3.790009|99.96639|3
2021-02-11 18:42:08.550 +0000|34393.96028791667|-0.92596435546875|0.3647613525390625|-0.0038604736328125|34393.94032591667|1.668073677844319|-1.553133534268183|-0.3701226444115377|0.05434465035796165|0.07463151961565018|0.01867300644516945|0.01297867298126221|0.00603756308555603|0.02208113670349121|XArbitraryZVertical|-0.4220196241803406|0.5600593751027492|-0.6059479922225579|-0.3755796124053073|-0.932137668132782|0.361729770898819|-0.01646586693823338|0|0|0|-1|-1|634761728.4859524|0|3.790009|99.96639|3
2021-02-11 18:42:08.570 +0000|34393.98024891667|-0.9338531494140625|0.363311767578125|-0.005126953125|34393.96028791667|1.668641460350396|-1.552152894693544|-0.3705749276289999|0.0264312457293272|0.05885649845004082|0.02134965918958187|0.007900357246398926|-0.004195421934127808|0.01878076605498791|XArbitraryZVertical|-0.4217531993458772|0.5598533637309107|-0.6063441190332655|-0.3755468800338388|-0.931957483291626|0.3621513843536377|-0.01737689971923828|0|0|0|-1|-1|634761728.4859524|0|3.790009|99.96639|3
2021-02-11 18:42:08.590 +0000|34394.00021229167|-0.92950439453125|0.3612060546875|-0.008148193359375|34393.98024891667|1.668983669348117|-1.551682175556577|-0.3708419096409036|0.03273952379822731|0.04538537561893463|0.02277214266359806|-6.29425048828125e-05|0.006572544574737549|0.01114570908248425|XArbitraryZVertical|-0.421630581203288|0.5597506435515085|-0.6065563368764093|-0.3754950125245182|-0.9318525791168213|0.362400233745575|-0.01781374029815197|0|0|0|-1|-1|634761728.4859524|0|3.790009|99.96639|3
2021-02-11 18:42:08.610 +0000|34394.02017329167|-0.91851806640625|0.3701324462890625|-0.020538330078125|34394.00021229167|1.669356334032764|-1.551177473081568|-0.3710742950675691|0.02825947292149067|0.05274065583944321|0.03624658286571503|-0.002185702323913574|-0.003623276948928833|0.008959351107478142|XArbitraryZVertical|-0.4215159235314522|0.5596276707525825|-0.6067750345020475|-0.3754536460182926|-0.9317591786384583|0.3626168072223663|-0.01828239299356937|0|0|0|-1|-1|634761728.4859524|0|3.790009|99.96639|3
2021-02-11 18:42:08.630 +0000|34394.04013529167|-0.91650390625|0.367431640625|-0.0021514892578125|34394.02017329167|1.670198583573953|-1.550266595114726|-0.3718821488511024|0.06130737066268921|0.0505099929869175|0.03899052739143372|0.01111489534378052|0.005954176187515259|-0.004358174279332161|XArbitraryZVertical|-0.4212460776544936|0.5594543767978891|-0.6072720567138198|-0.3752111504139468|-0.9314489960670471|0.3633695840835571|-0.019125085324049|0|0|0|-1|-1|634761728.4859524|0|3.790009|99.96639|3
2021-02-11 18:42:08.650 +0000|34394.06009729167|-0.9208984375|0.3800201416015625|-0.0017242431640625|34394.04013529167|1.671545857190752|-1.549191051383186|-0.372747247714143|0.07978545129299164|0.05135709047317505|0.06255941838026047|0.01326632499694824|0.005407750606536865|0.01757192611694336|XArbitraryZVertical|-0.4210508513246305|0.559156630710115|-0.607908221578075|-0.3748435926846377|-0.9311131238937378|0.364175409078598|-0.02012008614838123|0|0|0|-1|-1|634761728.4859524|0|3.790009|99.96639|3
2021-02-11 18:42:08.670 +0000|34394.08005829167|-0.93048095703125|0.38153076171875|-0.0035858154296875|34394.06009729167|1.672938084814592|-1.548008202158157|-0.3742574664602341|0.0526229664683342|0.03698981553316116|0.08040995895862579|0.01378965377807617|0.01350787281990051|0.02198719792068005|XArbitraryZVertical|-0.4206518934567779|0.5589700726798212|-0.6086913033258361|-0.3742987419758447|-0.9305378794670105|0.3655814826488495|-0.02120888419449329|0|0|0|-1|-1|634761728.4859524|0|3.790009|99.96639|3
2021-02-11 18:42:08.690 +0000|34394.10002029167|-0.926971435546875|0.3504486083984375|-0.0155792236328125|34394.08005829167|1.673860630075441|-1.547243713159286|-0.375856446813691|0.03002010658383369|0.03407317399978638|0.1002330258488655|0.001835048198699951|0.01337802410125732|0.01952612586319447|XArbitraryZVertical|-0.4202232887444714|0.5589804599001513|-0.6093130971583935|-0.3737523764308842|-0.9299356341362|0.3670693337917328|-0.02190646529197693|0|0|0|-1|-1|634761728.4859524|0|3.790009|99.96639|3
2021-02-11 18:42:08.710 +0000|34394.11998229167|-0.930328369140625|0.346405029296875|-0.0391082763671875|34394.10002029167|1.67430418066761|-1.546337866917739|-0.3780702652921062|0.01569564267992973|0.04173561930656433|0.1273095607757568|0.0005424022674560547|-0.01042410731315613|0.009926857426762581|XArbitraryZVertical|-0.4194425872262443|0.5591989488198377|-0.6099844808321723|-0.3732068070515299|-0.9291006326675415|0.3691276907920837|-0.02272890321910381|0|0|0|-1|-1|634761728.4859524|0|3.790009|99.96639|3
2021-02-11 18:42:08.730 +0000|34394.13994329167|-0.936004638671875|0.3369140625|-0.061279296875|34394.11998229167|1.675044535466392|-1.545547993850492|-0.3808267482503355|0.06422160565853119|0.03857487440109253|0.1390994489192963|-0.0005270838737487793|-0.0251762866973877|-0.008697984740138054|XArbitraryZVertical|-0.4186251322870591|0.5594948639255508|-0.6107824548863765|-0.3723751329053381|-0.9280617237091064|0.3716881275177002|-0.02343699149787426|0|0|0|-1|-1|634761728.4859524|0|3.790009|99.96639|3
2021-02-11 18:42:08.750 +0000|34394.15990529167|-0.9385223388671875|0.3674163818359375|-0.050201416015625|34394.13994329167|1.676239471429577|-1.544444186396099|-0.3837438103290692|0.04984449222683907|0.0743168443441391|0.1440993696451187|-0.009255468845367432|-0.03593948483467102|-0.03135335072875023|XArbitraryZVertical|-0.4177922240867633|0.5596724980447817|-0.6117566648837637|-0.371443193112843|-0.9269474148750305|0.3743945956230164|-0.02443270571529865|0|0|0|-1|-1|634761728.4859524|0|3.790009|99.96639|3
2021-02-11 18:42:08.770 +0000|34394.17986629167|-0.9511260986328125|0.380279541015625|-0.029388427734375|34394.15990529167|1.676875250989185|-1.542788507854718|-0.3867189197459451|0.03180333971977234|0.1133773773908615|0.1449083536863327|-0.009895920753479004|-0.01895156502723694|-0.02902603521943092|XArbitraryZVertical|-0.4166158580780812|0.5598778244464426|-0.6127493276982718|-0.3708186351940119|-0.9257884621620178|0.3771516680717468|-0.02593609690666199|0|0|0|-1|-1|634761728.4859524|0|3.790009|99.96639|3
2021-02-11 18:42:08.790 +0000|34394.19982829167|-0.96844482421875|0.3517303466796875|-0.0242919921875|34394.17986629167|1.677733259077983|-1.540487858794652|-0.3893442547251854|0.05222274735569954|0.1241927370429039|0.1458680629730225|-0.02311223745346069|0.006282448768615723|-0.01151490584015846|XArbitraryZVertical|-0.4154017677218935|0.5598423458083244|-0.6138517269552044|-0.3704107406688749|-0.9247334003448486|0.3795818388462067|-0.02803583815693855|0|0|0|-1|-1|634761728.4859524|0|3.790009|99.96639|3
2021-02-11 18:42:08.810 +0000|34394.21979029167|-0.958099365234375|0.35931396484375|-0.042449951171875|34394.19982829167|1.678892608260164|-1.537239561983851|-0.3915290869980145|0.06154264137148857|0.1697878539562225|0.1339053213596344|-0.04051864147186279|-0.02241036295890808|0.01329618878662586|XArbitraryZVertical|-0.4141042064814704|0.5594746730529868|-0.6151248744288811|-0.370306959801604|-0.9238063097000122|0.3816022276878357|-0.03101159259676933|0|0|0|-1|-1|634761728.4859524|0|3.790009|99.96639|3
2021-02-11 18:42:08.829 +0000|34394.23975129167|-0.947540283203125|0.3517913818359375|-0.0649566650390625|34394.21979029167|1.680905966081227|-1.532323944182139|-0.3932364023851564|0.08744247257709503|0.2068005800247192|0.131194218993187|-0.04093790054321289|-0.02638357877731323|-0.00559520348906517|XArbitraryZVertical|-0.4126647607644824|0.5585196622552435|-0.6168126063681584|-0.3705479235949692|-0.9229902625083923|0.383179783821106|-0.03552716597914696|0|0|0|-1|-1|634761728.4859524|0|3.790009|99.96639|3
2021-02-11 18:42:08.849 +0000|34394.25971329167|-1.029327392578125|0.4156494140625|-0.0918731689453125|34394.23975129167|1.681865944634941|-1.527412685759574|-0.3947793819805975|-0.03502452373504639|0.1912459135055542|0.1031191796064377|-0.02409142255783081|-0.03084474802017212|-0.01749146357178688|XArbitraryZVertical|-0.4109741987307909|0.557748301147782|-0.6182701962629004|-0.3711592533093735|-0.922213077545166|0.3846045434474945|-0.04003408178687096|0|0|0|-1|-1|634761728.4859524|0|3.790009|99.96639|3
2021-02-11 18:42:08.869 +0000|34394.27967529167|-1.092605590820312|0.45843505859375|-0.106597900390625|34394.25971329167|1.679126994314539|-1.524823913471223|-0.3962282138473966|-0.2204447090625763|0.195392981171608|0.06397417187690735|-0.07782578468322754|0.007628411054611206|-0.0495079793035984|XArbitraryZVertical|-0.4089938396405147|0.5581453159030257|-0.6185427650199292|-0.3722940653451769|-0.9215487241744995|0.3859415352344513|-0.0423956923186779|0|0|0|-1|-1|634761728.4859524|0|3.790009|99.96639|3
2021-02-11 18:42:08.889 +0000|34394.29963629167|-1.083740234375|0.4279937744140625|-0.1155242919921875|34394.27967529167|1.672514561004649|-1.52305608322335|-0.3976267620980614|-0.3735179603099823|0.2835436165332794|0.1166071146726608|-0.1658598184585571|0.06952521204948425|-0.05948615074157715|XArbitraryZVertical|-0.4061972931472778|0.5594678525181568|-0.6179111330685761|-0.3744134729767644|-0.9209322333335876|0.3872313499450684|-0.04399896040558815|0|0|0|-1|-1|634761728.4859524|0|3.790009|99.96639|3
2021-02-11 18:42:08.910 +0000|34394.31959829167|-1.090301513671875|0.39752197265625|-0.118316650390625|34394.29963629167|1.663318397621273|-1.520232599138535|-0.4003987144607539|-0.4664126634597778|0.3608690500259399|0.1624574214220047|-0.1684518456459045|0.04896563291549683|-0.06974256038665771|XArbitraryZVertical|-0.4019471605805126|0.5613966414502378|-0.617235589187533|-0.3772167732022282|-0.9197286367416382|0.3897855579853058|-0.04654458165168762|0|0|0|-1|-1|634761728.4859524|0|3.790009|99.96639|3
2021-02-11 18:42:08.929 +0000|34394.33955929167|-1.082427978515625|0.3979644775390625|-0.1496734619140625|34394.31959829167|1.653541412034586|-1.515808610397191|-0.4042264880073342|-0.4676345884799957|0.4812267422676086|0.1678233444690704|-0.1643496751785278|0.003985375165939331|-0.06537508964538574|XArbitraryZVertical|-0.3967199395377036|0.563336472457425|-0.6169344397401312|-0.3803383774368512|-0.9180173277854919|0.3933077156543732|-0.05053061619400978|0|0|0|-1|-1|634761728.4859524|0|3.790009|99.96639|3
2021-02-11 18:42:08.949 +0000|34394.35952129167|-1.133056640625|0.3273468017578125|-0.1557769775390625|34394.33955929167|1.644920913201476|-1.508641697390436|-0.4075215076144204|-0.3391387462615967|0.5523374676704407|0.125839501619339|-0.1731595993041992|0.01032698154449463|-0.08608436584472656|XArbitraryZVertical|-0.3911139452065694|0.5643721970479524|-0.6172729128330723|-0.3840419328517646|-0.9163332581520081|0.3963350355625153|-0.05702780932188034|0|0|0|-1|-1|634761728.4859524|0|3.790009|99.96639|3
2021-02-11 18:42:08.969 +0000|34394.37948329167|-1.167434692382812|0.2645416259765625|-0.1058197021484375|34394.35952129167|1.637846448712635|-1.49984040776909|-0.4101589172396915|-0.340578705072403|0.6796390414237976|0.08870375901460648|-0.1923363208770752|-0.05952173471450806|-0.1015945598483086|XArbitraryZVertical|-0.3856224677831872|0.5646125045869345|-0.6180749850575462|-0.3879320921465422|-0.914749801158905|0.3987550735473633|-0.06501606106758118|0|0|0|-1|-1|634761728.4859524|0|3.790009|99.96639|3
2021-02-11 18:42:08.989 +0000|34394.39944429167|-1.161483764648438|0.1436920166015625|-0.057647705078125|34394.37948329167|1.628985223738329|-1.487136309783407|-0.4130901592843332|-0.5662332773208618|0.9357132911682129|0.1402028948068619|-0.2554398775100708|-0.1169566214084625|-0.04372084140777588|XArbitraryZVertical|-0.378322105098069|0.5644515821189962|-0.6192774134789119|-0.3933985853355951|-0.9126815795898438|0.4014414548873901|-0.07653359323740005|0|0|0|-1|-1|634761728.4859524|0|3.790009|99.96639|3
2021-02-11 18:42:09.009 +0000|34394.41940629167|-1.169998168945312|0.1724395751953125|-0.0735626220703125|34394.39944429167|1.60965610009618|-1.474541268844196|-0.4180351207500976|-1.306799054145813|1.006126880645752|0.1925114691257477|-0.2555030584335327|-0.2318475246429443|0.01793015003204346|XArbitraryZVertical|-0.3674774701790322|0.5666083289426195|-0.6186376897349917|-0.4015007743034235|-0.9096581935882568|0.4059655666351318|-0.08783061802387238|0|0|0|-1|-1|634761728.4859524|0|3.790009|99.96639|3
2021-02-11 18:42:09.029 +0000|34394.43936829167|-1.286758422851562|0.1432342529296875|-0.081298828125|34394.41940629167|1.574366951558576|-1.472704517952822|-0.4249411009878736|-1.896915793418884|0.7063958644866943|0.1366013288497925|-0.2345824837684631|-0.2591604590415955|0.009405910968780518|XArbitraryZVertical|-0.3547520506470819|0.5740546088872547|-0.6130069422884715|-0.4108951572267292|-0.9066834449768066|0.4122671186923981|-0.08922457695007324|0|0|0|-1|-1|634761728.4859524|0|3.790009|99.96639|3
2021-02-11 18:42:09.049 +0000|34394.45932929167|-1.337127685546875|0.0788726806640625|0.0352783203125|34394.43936829167|1.528644701555422|-1.477069135387967|-0.4319204432982995|-2.332102298736572|0.8187029361724854|0.1802667826414108|-0.3667576909065247|-0.2656462490558624|0.0151250883936882|XArbitraryZVertical|-0.3406872963691317|0.5843240869073207|-0.6039847240055317|-0.4215449151971291|-0.9041775465011597|0.4186156392097473|-0.08499505370855331|0|0|0|-1|-1|634761728.4859524|0|3.790009|99.96639|3
2021-02-11 18:42:09.069 +0000|34394.47929129167|-1.2763671875|0.315673828125|-0.07281494140625|34394.45932929167|1.468775578583813|-1.479451977873271|-0.4410492883214988|-3.167565584182739|1.254115700721741|0.2600785195827484|-0.4544005393981934|-0.3308344781398773|0.1101677417755127|XArbitraryZVertical|-0.320860284594527|0.5964935415226016|-0.5924523232678827|-0.4361702065549751|-0.9005342721939087|0.4268885850906372|-0.08248826861381531|0|0|0|-1|-1|634761728.4859524|0|3.790009|99.96639|3
2021-02-11 18:42:09.089 +0000|34394.49925229167|-1.373321533203125|0.43011474609375|-0.0731048583984375|34394.47929129167|1.39381463034875|-1.486659776101861|-0.4520678500880941|-3.580696582794189|1.212450742721558|0.2038838714361191|-0.3818650245666504|-0.178739458322525|0.02244914323091507|XArbitraryZVertical|-0.2967931553126581|0.611650321763837|-0.5768250685221438|-0.4528471770104211|-0.8963637351989746|0.4368265867233276|-0.07559541612863541|0|0|0|-1|-1|634761728.4859524|0|3.790009|99.96639|3
2021-02-11 18:42:09.109 +0000|34394.51921429167|-1.457687377929688|0.5787353515625|-0.0757904052734375|34394.49925229167|1.313173057273426|-1.498913196730361|-0.4617153694290153|-3.698551893234253|1.149911403656006|0.1932314187288284|-0.4490786790847778|-0.04106566309928894|-0.003982238471508026|XArbitraryZVertical|-0.2721319585006149|0.6275299129846656|-0.5584728448488933|-0.4693170158257628|-0.8929775357246399|0.4454845190048218|-0.06430081278085709|0|0|0|-1|-1|634761728.4859524|0|3.790009|99.96639|3
2021-02-11 18:42:09.129 +0000|34394.53917629167|-1.468856811523438|0.8198089599609375|-0.1729278564453125|34394.51921429167|1.232915719316732|-1.510495622243986|-0.4713036102620059|-3.536238670349121|1.270567178726196|0.2623952925205231|-0.5375373363494873|0.05782315135002136|-0.02502607926726341|XArbitraryZVertical|-0.2466459832061841|0.6421205177037133|-0.5398995385814628|-0.4851345672260644|-0.8893578052520752|0.4540481567382812|-0.05369399860501289|0|0|0|-1|-1|634761728.4859524|0|3.790009|99.96639|3
2021-02-11 18:42:09.149 +0000|34394.55913729167|-1.363433837890625|0.7095184326171875|-0.2757110595703125|34394.53917629167|1.156730352544746|-1.517524174492802|-0.4810752503196634|-3.220563411712646|1.450119495391846|0.334304004907608|-0.6118910908699036|0.3104911744594574|-0.1166302561759949|XArbitraryZVertical|-0.2205240035182378|0.6540393758371311|-0.5225271213829772|-0.5005667663075997|-0.8852403163909912|0.4627326428890228|-0.04720331728458405|0|0|0|-1|-1|634761728.4859524|0|3.790009|99.96639|3
2021-02-11 18:42:09.177 +0000|34394.57909929167|-1.361862182617188|0.6947479248046875|-0.305572509765625|34394.55913729167|1.085082493086508|-1.521811869966503|-0.4930443474418488|-3.153727531433105|1.462876319885254|0.4530185163021088|-0.491239070892334|0.2626825869083405|-0.1944921612739563|XArbitraryZVertical|-0.1939219081729776|0.6639486522179533|-0.5067303482552439|-0.5145783539676592|-0.8798394203186035|0.4733098447322845|-0.0431329607963562|0|0|0|-1|-1|634761728.4859524|0|3.790009|99.96639|3
2021-02-11 18:42:09.189 +0000|34394.59906129167|-1.199569702148438|0.46978759765625|-0.4473724365234375|34394.57909929167|1.014168588117356|-1.5245080041599|-0.5076381661955182|-3.225408792495728|1.764484643936157|0.695288360118866|-0.4892540574073792|0.2207182645797729|-0.2612600922584534|XArbitraryZVertical|-0.1658454898595279|0.6725153706022966|-0.491573497025136|-0.5278010739965853|-0.8729591369628906|0.4861146211624146|-0.04043669998645782|0|0|0|-1|-1|634761728.4859524|0|3.790009|99.96639|3
2021-02-11 18:42:09.209 +0000|34394.61902229167|-1.057327270507812|0.788330078125|-0.3019561767578125|34394.59906129167|0.9331439179134872|-1.52715328975551|-0.5274486682798325|-3.813920021057129|1.879845142364502|0.9951304197311401|-0.4118751883506775|0.001247227191925049|-0.3838395476341248|XArbitraryZVertical|-0.1321268655725922|0.6809497999667334|-0.4747001311917411|-0.541765396930913|-0.8632713556289673|0.503330409526825|-0.03769972175359726|0|0|0|-1|-1|634761728.4859524|0|3.790009|99.96639|3
2021-02-11 18:42:09.229 +0000|34394.63898429167|-0.7854461669921875|0.1700286865234375|-0.2462158203125|34394.61902229167|0.8486595383760186|-1.533365775024878|-0.553650090444655|-3.786651611328125|1.851508259773254|1.313209891319275|-0.2191834449768066|0.2202066779136658|-0.3560165166854858|XArbitraryZVertical|-0.09536897805354992|0.689194496178521|-0.4580198958827735|-0.5532933937512471|-0.8500152826309204|0.5257955193519592|-0.03183140978217125|0|0|0|-1|-1|634761728.4859524|0|3.790009|99.96639|3
2021-02-11 18:42:09.249 +0000|34394.65894529167|-0.7321014404296875|0.5328369140625|-0.065826416015625|34394.63898429167|0.7601675764288611|-1.547207982416221|-0.5813568294603675|-3.641044139862061|1.444458723068237|1.327475666999817|-0.05736702680587769|-0.3139747381210327|-0.3021880388259888|XArbitraryZVertical|-0.05794685325202571|0.697700846379945|-0.440239765193411|-0.5621784510917657|-0.8354857563972473|0.5491583943367004|-0.01971138268709183|0|0|0|-1|-1|634761728.4859524|0|3.790009|99.96639|3
2021-02-11 18:42:09.269 +0000|34394.67890729167|-0.6199951171875|0.52264404296875|-0.07159423828125|34394.65894529167|0.6772085938850587|-1.56687319722012|-0.6107664701968699|-3.135605096817017|1.321667194366455|1.512676358222961|0.09489822387695312|-0.07880556583404541|-0.06938743591308594|XArbitraryZVertical|-0.02265369114169875|0.7056060397244727|-0.424584420269789|-0.56686424579619|-0.8192024827003479|0.5734955072402954|-0.003213854040950537|0|0|0|-1|-1|634761728.4859524|0|3.790009|99.96639|3
2021-02-11 18:42:09.289 +0000|34394.69886929167|-0.5410614013671875|0.5179290771484375|-0.1470489501953125|34394.67890729167|0.6077898853101149|-1.581244714388364|-0.6426287637503774|-2.536947250366211|1.300590038299561|1.65069317817688|0.1333041191101074|-0.08459246158599854|-0.07745587825775146|XArbitraryZVertical|0.01015461406515623|0.7099851376414607|-0.413904968292613|-0.5696496152771545|-0.8004794120788574|0.5993018746376038|0.008364023640751839|0|0|0|-1|-1|634761728.4859524|0|3.790009|99.96639|3
2021-02-11 18:42:09.309 +0000|34394.71883029167|-0.4516143798828125|0.4443817138671875|-0.1527557373046875|34394.69886929167|0.550190154815097|-1.589821017132161|-0.6744873249906986|-1.966876626014709|1.385206580162048|1.609381675720215|0.2357350587844849|-0.09785521030426025|-0.1560474634170532|XArbitraryZVertical|0.04004932561146599|0.7112137533158008|-0.4068322225834547|-0.5718903001859741|-0.7808857560157776|0.6244969964027405|0.01485790312290192|0|0|0|-1|-1|634761728.4859524|0|3.790009|99.96639|3
2021-02-11 18:42:09.329 +0000|34394.73879229167|-0.386016845703125|0.3783721923828125|-0.2199249267578125|34394.71883029167|0.5033369996251831|-1.589785846739407|-0.706003004704767|-1.590787649154663|1.581849575042725|1.590039491653442|0.2793024182319641|-0.1717313528060913|-0.1098321676254272|XArbitraryZVertical|0.06771077927959246|0.708971057003318|-0.4026446171573456|-0.5750239813601875|-0.7608239650726318|0.6487973928451538|0.01444941852241755|0|0|0|-1|-1|634761728.4859524|0|3.790009|99.96639|3
2021-02-11 18:42:09.348 +0000|34394.75875429167|-0.2854156494140625|0.486328125|-0.26177978515625|34394.73879229167|0.462641580520329|-1.582188598758786|-0.7368893428289054|-1.46302056312561|1.843084454536438|1.604294061660767|0.3401085138320923|-0.2973232269287109|-0.2100355625152588|XArbitraryZVertical|0.09438262672812558|0.7037827599226837|-0.3996697252696023|-0.579694641519314|-0.7405144572257996|0.6719875335693359|0.008436506614089012|0|0|0|-1|-1|634761728.4859524|0|3.790009|99.96639|3
2021-02-11 18:42:09.368 +0000|34394.77871529167|-0.341064453125|0.291595458984375|-0.13250732421875|34394.75875429167|0.4263995132644199|-1.56880974234266|-0.7699808389613048|-1.197303414344788|2.010930776596069|1.687325596809387|0.4194607734680176|-0.1961061954498291|-0.275352954864502|XArbitraryZVertical|0.1212732206971053|0.6961175891859669|-0.3980853667815372|-0.5850138643200182|-0.7179226875305176|0.6961214542388916|-0.001426215982064605|0|0|0|-1|-1|634761728.4859524|0|3.790009|99.96639|3
2021-02-11 18:42:09.388 +0000|34394.79867729167|-0.330535888671875|0.5583038330078125|0.0065155029296875|34394.77871529167|0.3883227473240997|-1.554669996458575|-0.8041189347985089|-1.44578742980957|2.121442556381226|1.676118493080139|0.3689336776733398|-0.4292497634887695|-0.1415686011314392|XArbitraryZVertical|0.149146224897481|0.687140346142016|-0.395864395059246|-0.5906649408489874|-0.6936560869216919|0.7202196717262268|-0.01118709705770016|0|0|0|-1|-1|634761728.4859524|0|3.790009|99.96639|3
2021-02-11 18:42:09.408 +0000|34394.81863829167|-0.393829345703125|0.47076416015625|0.225006103515625|34394.79867729167|0.3510135623148427|-1.540136549684357|-0.8382494466278066|-1.299104809761047|2.049532413482666|1.715256929397583|0.34147047996521|-0.2270092964172363|-0.03960341215133667|XArbitraryZVertical|0.176617239874566|0.6771675255593355|-0.3934625264520412|-0.5961860223418052|-0.6684510707855225|0.7434735298156738|-0.02050098590552807|0|0|0|-1|-1|634761728.4859524|0|3.790009|99.96639|3
2021-02-11 18:42:09.428 +0000|34394.83860029167|-0.4700927734375|0.708831787109375|0.1329345703125|34394.81863829167|0.3091448352343313|-1.530579731906491|-0.8725579436306641|-1.53826892375946|2.110083103179932|1.597863793373108|0.2500918507575989|-0.3003997206687927|0.2188402414321899|XArbitraryZVertical|0.2044529075861556|0.6672896564461499|-0.3898746565031528|-0.6007672289104196|-0.6423494815826416|0.7659758925437927|-0.0258470457047224|0|0|0|-1|-1|634761728.4859524|0|3.790009|99.96639|3
2021-02-11 18:42:09.448 +0000|34394.85856229167|-0.619537353515625|0.838531494140625|0.0498504638671875|34394.83860029167|0.2640329954891782|-1.521810554750968|-0.9041978319647921|-1.504180073738098|2.296964168548584|1.457192301750183|0.1814327239990234|-0.139475405216217|0.1771271824836731|XArbitraryZVertical|0.2319706153777679|0.6565449977094161|-0.3843764321218636|-0.6061297169125096|-0.6175748109817505|0.7859294414520264|-0.03027659840881824|0|0|0|-1|-1|634761728.4859524|0|3.790009|99.96639|3
2021-02-11 18:42:09.468 +0000|34394.87852329167|-0.72979736328125|0.884613037109375|0.10345458984375|34394.85856229167|0.2146674407901829|-1.512872302618989|-0.9334308362588403|-1.642687559127808|2.545886516571045|1.311224102973938|0.0189937949180603|0.01330453157424927|0.1067920923233032|XArbitraryZVertical|0.2597014007068883|0.6444610903641962|-0.3766223715610515|-0.6126831820106893|-0.594082236289978|0.8036662936210632|-0.03445016965270042|0|0|0|-1|-1|634761728.4859524|0|3.790009|99.96639|3
2021-02-11 18:42:09.488 +0000|34394.89848529167|-0.7754058837890625|0.80560302734375|0.2147674560546875|34394.87852329167|0.1569165413333995|-1.507187210797871|-0.9614321304515078|-1.929413437843323|2.708157777786255|1.300925731658936|-0.1395809650421143|0.07474803924560547|0.1167804598808289|XArbitraryZVertical|0.2886183403673516|0.6312753021980246|-0.3661178899658437|-0.619797272177933|-0.571188747882843|0.820012092590332|-0.03638189285993576|0|0|0|-1|-1|634761728.4859524|0|3.790009|99.96639|3
2021-02-11 18:42:09.508 +0000|34394.91844729167|-0.7459259033203125|0.8436431884765625|0.3236541748046875|34394.89848529167|0.07950726261133982|-1.517126038553721|-0.9904645160521574|-2.642928838729858|2.692274570465088|1.313574910163879|-0.2176246047019958|-0.0100630521774292|0.2343541979789734|XArbitraryZVertical|0.3206117680029798|0.6184669783226923|-0.3520275195255402|-0.6251267281366902|-0.5475121736526489|0.8362807631492615|-0.02941338159143925|0|0|0|-1|-1|634761728.4859524|0|3.790009|99.96639|3
2021-02-11 18:42:09.528 +0000|34394.93840829167|-0.7116241455078125|0.8022918701171875|0.316741943359375|34394.91844729167|-0.0245195608269636|-1.553440316760353|-1.018515662792538|-2.926095485687256|2.485975503921509|1.293114066123962|-0.2306215763092041|-0.02625703811645508|0.2884629368782043|XArbitraryZVertical|0.3551905865630754|0.607689997467635|-0.3340709798525353|-0.626856486374687|-0.5245510935783386|0.8513302206993103|-0.009105028584599495|0|0|0|-1|-1|634761728.4859524|0|3.790009|99.96639|3
2021-02-11 18:42:09.549 +0000|34394.95837029167|-0.666656494140625|0.6569976806640625|0.2638397216796875|34394.93840829167|-0.129122478895566|-1.595319754259236|-1.043181986862886|-2.383226633071899|2.289192676544189|1.193596363067627|-0.2255747318267822|-0.04664301872253418|0.3244920969009399|XArbitraryZVertical|0.3872875333326528|0.5968091812551228|-0.3168078036147503|-0.6272639721142342|-0.5033223628997803|0.8640106320381165|0.01234566420316696|0|0|0|-1|-1|634761728.4859524|0|3.790009|99.96639|3
2021-02-11 18:42:09.568 +0000|34394.97833129167|-0.6220550537109375|0.616241455078125|0.1897125244140625|34394.95837029167|-0.2169160347450616|-1.628434508264873|-1.064837884551134|-1.858895897865295|2.06348443031311|1.159825801849365|-0.1801755726337433|-0.1884311437606812|0.2508289813995361|XArbitraryZVertical|0.4142207275225588|0.5851329007436518|-0.3029469321964467|-0.6279042815313544|-0.4838411211967468|0.8747103810310364|0.02791864611208439|0|0|0|-1|-1|634761728.4859524|0|3.790009|99.96639|3
2021-02-11 18:42:09.588 +0000|34394.998293625|-0.494476318359375|0.47760009765625|0.1776580810546875|34394.97833129167|-0.2851838329317466|-1.648242335019181|-1.086236844085915|-1.185229659080505|1.960847139358521|1.198785424232483|-0.1927890777587891|-0.2231829762458801|0.1850906610488892|XArbitraryZVertical|0.4367472088683413|0.5720766885658689|-0.2928307406376474|-0.6294681959199735|-0.4644221365451813|0.8848802447319031|0.03603972494602203|0|0|0|-1|-1|634761728.4859524|0|3.790009|99.96639|3
2021-02-11 18:42:09.608 +0000|34395.018255625|-0.44775390625|0.4849853515625|0.188690185546875|34394.998293625|-0.3270015856220802|-1.649115789986477|-1.107918756462842|-0.5555572509765625|1.662231206893921|1.11278772354126|-0.07983779907226562|-0.3999897837638855|0.1361151933670044|XArbitraryZVertical|0.454010743760404|0.5579804368889449|-0.2871281656753953|-0.6325263298149988|-0.4451560974121094|0.8947712779045105|0.0349358469247818|0|0|0|-1|-1|634761728.4859524|0|3.790009|99.96639|3
2021-02-11 18:42:09.628 +0000|34395.03821662501|-0.3984832763671875|0.46295166015625|0.327423095703125|34395.018255625|-0.337624466374545|-1.628084207732522|-1.127900634120954|0.295575350522995|1.416551470756531|0.8976697325706482|-0.01980748772621155|-0.4331927299499512|0.1624740362167358|XArbitraryZVertical|0.4650122714445959|0.5440886534177388|-0.2856255830267244|-0.637298454971387|-0.4278549253940582|0.9035145044326782|0.02453775145113468|0|0|0|-1|-1|634761728.4859524|0|3.790009|99.96639|3
2021-02-11 18:42:09.648 +0000|34395.058178625|-0.4172210693359375|0.665252685546875|0.3388671875|34395.03821662501|-0.3081700746009717|-1.574775049985456|-1.145209396100497|0.9973957538604736|1.247541546821594|0.7472559809684753|0.02135762572288513|-0.4337303638458252|0.3295341730117798|XArbitraryZVertical|0.4692285786918539|0.5297601892458803|-0.2883080048265123|-0.6450250404781189|-0.4128524661064148|0.910796582698822|0.001642634393647313|0|0|0|-1|-1|634761728.4859524|0|3.790009|99.96639|3
2021-02-11 18:42:09.668 +0000|34395.078140625|-0.46173095703125|0.6129913330078125|0.37200927734375|34395.058178625|-0.2499287036873612|-1.498078394856237|-1.15632282647288|1.326688408851624|1.118747472763062|0.4773685038089752|-0.006940752267837524|-0.2639613151550293|0.3505932092666626|XArbitraryZVertical|0.4681710726795432|0.515932843089946|-0.2927761443976803|-0.6549131841610731|-0.4016438126564026|0.9153285026550293|-0.02925829589366913|0|0|0|-1|-1|634761728.4859524|0|3.790009|99.96639|3
2021-02-11 18:42:09.688 +0000|34395.098101625|-0.488372802734375|0.7849884033203125|0.337127685546875|34395.078140625|-0.186229904103328|-1.419115891051711|-1.160765787428942|1.194006085395813|0.9126701951026917|0.2425265163183212|-0.06588524580001831|-0.3124943971633911|0.4370039701461792|XArbitraryZVertical|0.4648565001196957|0.5037772175867952|-0.2967088266219617|-0.6648915899159314|-0.3940604031085968|0.9171086549758911|-0.06023389846086502|0|0|0|-1|-1|634761728.4859524|0|3.790009|99.96639|3
2021-02-11 18:42:09.708 +0000|34395.118063625|-0.4134674072265625|0.7186279296875|0.3188323974609375|34395.098101625|-0.1289938691369414|-1.349098838668255|-1.160804727972146|0.9757071137428284|0.8688468933105469|0.1803786307573318|-0.08420699834823608|-0.1308998465538025|0.4623874425888062|XArbitraryZVertical|0.4610342849659201|0.4935827899574141|-0.2996705773221182|-0.6738107257816892|-0.3888459205627441|0.9171241521835327|-0.08764683455228806|0|0|0|-1|-1|634761728.4859524|0|3.790009|99.96639|3
2021-02-11 18:42:09.728 +0000|34395.138024625|-0.4417266845703125|0.5877227783203125|0.21435546875|34395.118063625|-0.08394834052698442|-1.292222212111149|-1.158961304557746|0.5586409568786621|0.7201032042503357|0.09901294112205505|-0.04617059230804443|-0.2123320698738098|0.4098330736160278|XArbitraryZVertical|0.4579675725943259|0.4850037291340322|-0.3013714665024067|-0.6813312658596588|-0.3848596811294556|0.9163877964019775|-0.1100741699337959|0|0|0|-1|-1|634761728.4859524|0|3.790009|99.96639|3
2021-02-11 18:42:09.748 +0000|34395.157986625|-0.454193115234375|0.8289337158203125|0.321807861328125|34395.138024625|-0.08499889367118639|-1.279355690861742|-1.15810504903582|-0.5149820446968079|0.6272119879722595|-0.1561952084302902|-0.06987741589546204|-0.3195939660072327|0.3295213580131531|XArbitraryZVertical|0.4598680273891869|0.4805208863046063|-0.2978377884409489|-0.6847727398825014|-0.3841630518436432|0.9160447120666504|-0.1152421534061432|0|0|0|-1|-1|634761728.4859524|0|3.790009|99.96639|3
2021-02-11 18:42:09.768 +0000|34395.177948625|-0.4560394287109375|0.79730224609375|0.4561614990234375|34395.157986625|-0.1172299356797007|-1.296746040429449|-1.159796660272403|-0.4978223443031311|0.6414018273353577|-0.02447286620736122|-0.07761749625205994|-0.1588940620422363|0.381425142288208|XArbitraryZVertical|0.4655874292495041|0.4787127441075178|-0.2912667999330049|-0.6850009150044508|-0.3846170008182526|0.9167218804359436|-0.1081249117851257|0|0|0|-1|-1|634761728.4859524|0|3.790009|99.96639|3
2021-02-11 18:42:09.788 +0000|34395.197909625|-0.408935546875|0.73309326171875|0.4263458251953125|34395.177948625|-0.1293303777416724|-1.294025659155964|-1.162202077501514|-0.1619260013103485|0.731228768825531|0.04171130433678627|-0.05617079138755798|-0.09355300664901733|0.5587784647941589|XArbitraryZVertical|0.4696403895226887|0.4745039091065574|-0.287118681508597|-0.6869110948362211|-0.3821989297866821|0.9176802635192871|-0.1085678860545158|0|0|0|-1|-1|634761728.4859524|0|3.790009|99.96639|3
2021-02-11 18:42:09.808 +0000|34395.21787162501|-0.484375|0.82330322265625|0.2019195556640625|34395.197909625|-0.1436243041774199|-1.29228753291759|-1.16400736431098|-0.4723597764968872|0.7135089635848999|-0.03312166035175323|-0.05029353499412537|-0.18377685546875|0.544308066368103|XArbitraryZVertical|0.4738439275574635|0.470195407754477|-0.2822722229669974|-0.6889925121913364|-0.3804162740707397|0.9183960556983948|-0.1087764203548431|0|0|0|-1|-1|634761728.4859524|0|3.790009|99.96639|3
2021-02-11 18:42:09.828 +0000|34395.237833625|-0.4697418212890625|0.7779693603515625|0.2305450439453125|34395.21787162501|-0.1723736762419457|-1.305305022206914|-1.164411991639163|-0.6640907526016235|0.646111011505127|-0.196069210767746|-0.100614458322525|-0.1148756742477417|0.3200567960739136|XArbitraryZVertical|0.4788988714523768|0.4677574335836978|-0.275571311247979|-0.6898690343542171|-0.3814411461353302|0.9185560345649719|-0.1037177070975304|0|0|0|-1|-1|634761728.4859524|0|3.790009|99.96639|3
2021-02-11 18:42:09.848 +0000|34395.257794625|-0.449066162109375|0.860504150390625|0.25494384765625|34395.237833625|-0.22120467052739|-1.336881588182383|-1.165029566102737|-1.127894520759583|0.6964725255966187|-0.2726801931858063|-0.09739533066749573|-0.1082073450088501|0.3392794132232666|XArbitraryZVertical|0.4862205417924955|0.4667372147988319|-0.2665273685210997|-0.688991381508993|-0.3839736878871918|0.9187999963760376|-0.09149191528558731|0|0|0|-1|-1|634761728.4859524|0|3.790009|99.96639|3
2021-02-11 18:42:09.867 +0000|34395.277756625|-0.4029693603515625|0.88665771484375|0.188507080078125|34395.257794625|-0.2846895870990428|-1.379544431532519|-1.163901399979179|-1.237895011901855|0.8350930213928223|-0.3233317136764526|-0.04492774605751038|-0.07403945922851562|0.3755069971084595|XArbitraryZVertical|0.4951271049859142|0.4660842576095953|-0.2548218254587529|-0.6875176305504775|-0.3885439038276672|0.9183540940284729|-0.0752292275428772|0|0|0|-1|-1|634761728.4859524|0|3.790009|99.96639|3
2021-02-11 18:42:09.887 +0000|34395.297717625|-0.432159423828125|0.91851806640625|0.1144561767578125|34395.277756625|-0.3611345311375548|-1.435799825456985|-1.162171223389538|-1.227726697921753|0.7893429398536682|-0.2779816687107086|-0.02817234396934509|-0.0396466851234436|0.2799946069717407|XArbitraryZVertical|0.5054712620185347|0.4666474842432816|-0.2421566808808811|-0.6841777589914055|-0.3937331736087799|0.9176679849624634|-0.05347785726189613|0|0|0|-1|-1|634761728.4859524|0|3.790009|99.96639|3
2021-02-11 18:42:09.907 +0000|34395.317679625|-0.42974853515625|0.9678802490234375|-0.0040740966796875|34395.297717625|-0.4233973224583306|-1.477081660201729|-1.159242540169663|-1.20714795589447|0.8036777973175049|-0.3015952110290527|-0.02626678347587585|-0.02779799699783325|0.1945081949234009|XArbitraryZVertical|0.5143129552397264|0.4655803800525755|-0.2304931246302175|-0.6823415605833782|-0.3982784748077393|0.9165003895759583|-0.03743418678641319|0|0|0|-1|-1|634761728.4859524|0|3.790009|99.96639|3
2021-02-11 18:42:09.928 +0000|34395.337641625|-0.5042266845703125|1.019866943359375|-0.0250701904296875|34395.317679625|-0.4824114355130298|-1.513833447670779|-1.154629860890289|-1.210196256637573|0.8935421109199524|-0.3451326489448547|-0.009163737297058105|0.07423102855682373|0.04573559761047363|XArbitraryZVertical|0.5227159518072427|0.4639616643935653|-0.2184182750785331|-0.6810295107514123|-0.403601735830307|0.9146453738212585|-0.02301521599292755|0|0|0|-1|-1|634761728.4859524|0|3.790009|99.96639|3
2021-02-11 18:42:09.947 +0000|34395.357602625|-0.4765777587890625|1.324676513671875|0.06915283203125|34395.337641625|-0.5523902386658974|-1.56119862014612|-1.147820153447983|-1.683125257492065|0.7485918402671814|-0.4157604873180389|-0.09360146522521973|0.03910219669342041|-0.05018335580825806|XArbitraryZVertical|0.5322738020464112|0.4633732992709778|-0.2048682178861512|-0.6782321481645698|-0.4104573726654053|0.9118713140487671|-0.003939570393413305|0|0|0|-1|-1|634761728.4859524|0|3.790009|99.96639|3
2021-02-11 18:42:09.967 +0000|34395.377564625|-0.3523101806640625|1.2724609375|-0.0488739013671875|34395.357602625|-0.6397812584948249|-1.628441378001016|-1.137897292473443|-1.86983060836792|0.4982649683952332|-0.451831042766571|-0.0768742561340332|0.3868480920791626|0.01623630523681641|XArbitraryZVertical|0.5437047801310798|0.4652629249290143|-0.190043238665537|-0.6721600485151309|-0.4188074767589569|0.9077534079551697|0.02416895516216755|0|0|0|-1|-1|634761728.4859524|0|3.790009|99.96639|3
2021-02-11 18:42:09.987 +0000|34395.39752662501|-0.3889923095703125|1.14813232421875|-0.0927734375|34395.377564625|-0.7068644307827902|-1.681901414702687|-1.127284406299418|-1.035783648490906|0.2512307167053223|-0.3501621186733246|0.04750114679336548|0.3791594505310059|-0.07718086987733841|XArbitraryZVertical|0.5522612340265822|0.4677573109234682|-0.1784877151937762|-0.666597896610736|-0.4264684021472931|0.9032502174377441|0.04757874459028244|0|0|0|-1|-1|634761728.4859524|0|3.790009|99.96639|3
2021-02-11 18:42:10.007 +0000|34395.417487625|-0.3673248291015625|1.135818481445312|-0.085174560546875|34395.39752662501|-0.7399652189117302|-1.70951092008522|-1.119708423582771|-0.4490763247013092|0.02202194556593895|-0.2476390302181244|0.06319671869277954|0.2910056710243225|-0.1490538120269775|XArbitraryZVertical|0.5561506517037159|0.469931425513294|-0.1724109266459032|-0.6634270245513521|-0.4317575097084045|0.8999733924865723|0.06027818471193314|0|0|0|-1|-1|634761728.4859524|0|3.790009|99.96639|3
2021-02-11 18:42:10.027 +0000|34395.437449625|-0.3233795166015625|1.257186889648438|-0.15850830078125|34395.417487625|-0.7414514177232531|-1.712224770742044|-1.114828731206025|0.3526643812656403|-0.1591918915510178|-0.2275445759296417|0.05184051394462585|0.2188484668731689|-0.1436872631311417|XArbitraryZVertical|0.5553559825885809|0.4718195692266358|-0.1709093691355179|-0.6631409755201604|-0.4359346926212311|0.897835373878479|0.06206794828176498|0|0|0|-1|-1|634761728.4859524|0|3.790009|99.96639|3
2021-02-11 18:42:10.047 +0000|34395.457410625|-0.2666778564453125|1.172943115234375|-0.201416015625|34395.437449625|-0.7095522857574212|-1.688976380415949|-1.112167542656089|1.066743612289429|-0.3700757920742035|-0.2181463688611984|0.1036480069160461|0.337623119354248|-0.1850876808166504|XArbitraryZVertical|0.5493117320370268|0.4736623948679644|-0.174130289997152|-0.6660175093615791|-0.4396312832832336|0.8966603875160217|0.05219888687133789|0|0|0|-1|-1|634761728.4859524|0|3.790009|99.96639|3
2021-02-11 18:42:10.067 +0000|34395.477372625|-0.2218780517578125|1.091278076171875|-0.2049560546875|34395.457410625|-0.6459785055840195|-1.639643353729007|-1.111497460592469|1.631361842155457|-0.4157829880714417|-0.1499631404876709|0.1652310788631439|0.3090198040008545|-0.2213997840881348|XArbitraryZVertical|0.5384896353949367|0.4746340543850175|-0.1817443893106807|-0.6721015076048832|-0.4422695934772491|0.8963635563850403|0.03049714677035809|0|0|0|-1|-1|634761728.4859524|0|3.790009|99.96639|3
2021-02-11 18:42:10.087 +0000|34395.497334625|-0.159271240234375|0.91436767578125|-0.1441192626953125|34395.477372625|-0.56682420038282|-1.577027674940508|-1.109964989570713|1.810672998428345|-0.3975678682327271|-0.09925682842731476|0.213620513677597|0.2177202701568604|-0.2192474603652954|XArbitraryZVertical|0.5251902808995457|0.4749322881915755|-0.1913147824368708|-0.6797155321899868|-0.4446843862533569|0.8956831097602844|0.002771019004285336|0|0|0|-1|-1|634761728.4859524|0|3.790009|99.96639|3
2021-02-11 18:42:10.107 +0000|34395.517295625|-0.0810546875|0.82989501953125|-0.0465545654296875|34395.497334625|-0.4958223393023692|-1.521443746627661|-1.108427958789466|1.266585230827332|-0.4317201375961304|-0.007018509320914745|0.2600708305835724|0.06040006875991821|-0.1392643451690674|XArbitraryZVertical|0.5133992677374312|0.4747823966332904|-0.2006113460823642|-0.6861181207933243|-0.4455261826515198|0.8949985504150391|-0.02200573496520519|0|0|0|-1|-1|634761728.4859524|0|3.790009|99.96639|3
2021-02-11 18:42:10.127 +0000|34395.537257625|-0.0153350830078125|0.7898712158203125|0.00286865234375|34395.517295625|-0.4588893342741015|-1.497172412741786|-1.108696398751561|0.3438601493835449|-0.4391200542449951|0.1124014481902122|0.3496808707714081|-0.04689741134643555|-0.04401874169707298|XArbitraryZVertical|0.5071658565225849|0.4758001544562599|-0.207195584534493|-0.6880893816558014|-0.4446210265159607|0.895118236541748|-0.03279401361942291|0|0|0|-1|-1|634761728.4859524|0|3.790009|99.96639|3
2021-02-11 18:42:10.147 +0000|34395.557219625|-0.031890869140625|0.7375640869140625|-0.0270538330078125|34395.537257625|-0.4605809055124751|-1.509123407768898|-1.110837895483556|-0.3535339534282684|-0.5930739641189575|0.1257299482822418|0.4183782935142517|-0.1144089698791504|0.0234689749777317|XArbitraryZVertical|0.5068817895114787|0.4789476878798934|-0.2103435399416145|-0.6851536800428338|-0.4430669248104095|0.8960709571838379|-0.02735992707312107|0|0|0|-1|-1|634761728.4859524|0|3.790009|99.96639|3
2021-02-11 18:42:10.175 +0000|34395.577180625|-0.060028076171875|0.670501708984375|0.101348876953125|34395.557219625|-0.4865072147214074|-1.546029440209726|-1.113817820309911|-0.8588293790817261|-0.7434411644935608|0.1110618785023689|0.4198939204216003|-0.1288045048713684|-0.01840043067932129|XArbitraryZVertical|0.5099900972420971|0.4841968627996411|-0.2118699478308471|-0.6786565731506887|-0.441103607416153|0.8973897695541382|-0.01092699728906155|0|0|0|-1|-1|634761728.4859524|0|3.790009|99.96639|3
2021-02-11 18:42:10.187 +0000|34395.597142625|-0.10638427734375|0.7932586669921875|0.0990142822265625|34395.577180625|-0.5263384224850609|-1.59670178132969|-1.115050083498307|-0.7078102827072144|-0.7643803954124451|0.05255099013447762|0.3704964220523834|-0.2370288968086243|0.07369768619537354|XArbitraryZVertical|0.514632404126663|0.4907685480999319|-0.2118317225214289|-0.6703932097475587|-0.4399848580360413|0.8979328274726868|0.01140055805444717|0|0|0|-1|-1|634761728.4859524|0|3.790009|99.96639|3
2021-02-11 18:42:10.207 +0000|34395.617103625|-0.2552337646484375|0.7322540283203125|0.0875244140625|34395.597142625|-0.545095022654544|-1.629115890995665|-1.11535984396817|-0.1837229430675507|-0.828009307384491|-0.01248296070843935|0.3583114743232727|-0.1080604791641235|0.08762848377227783|XArbitraryZVertical|0.5158838992050507|0.4966715167910292|-0.21403004484691|-0.6643586588909817|-0.4391067326068878|0.8980691432952881|0.02563758566975594|0|0|0|-1|-1|634761728.4859524|0|3.790009|99.96639|3
2021-02-11 18:42:10.227 +0000|34395.637065625|-0.410797119140625|0.792572021484375|0.0633392333984375|34395.617103625|-0.5456176409812995|-1.647239638693959|-1.112583196275851|0.1632899045944214|-0.972466766834259|-0.257236510515213|0.2152397334575653|-0.1629270911216736|0.04487752541899681|XArbitraryZVertical|0.5134284019485978|0.5032713223613361|-0.2175567287192905|-0.6601350998971575|-0.4410545229911804|0.8968443274497986|0.0337814949452877|0|0|0|-1|-1|634761728.4859524|0|3.790009|99.96639|3
2021-02-11 18:42:10.247 +0000|34395.657027625|-0.6287384033203125|0.858367919921875|0.1112213134765625|34395.637065625|-0.5290412977423583|-1.653246511584572|-1.105988628761596|0.4047647714614868|-1.083772540092468|-0.4335743486881256|0.08715513348579407|-0.1129170060157776|0.03739381209015846|XArbitraryZVertical|0.507068839793298|0.5112137161157907|-0.2222510451831335|-0.6573784108883767|-0.4467285573482513|0.8939077854156494|0.03691654279828072|0|0|0|-1|-1|634761728.4859524|0|3.790009|99.96639|3
2021-02-11 18:42:10.267 +0000|34395.676988625|-0.604248046875|0.707794189453125|0.22100830078125|34395.657027625|-0.5097469407097786|-1.658681063645655|-1.096543419581707|0.1364287585020065|-1.163639187812805|-0.5083659887313843|-0.1589188575744629|-0.04409879446029663|-0.02931034564971924|XArbitraryZVertical|0.4993198051548321|0.5203088076056609|-0.2266531077805062|-0.6546655314088622|-0.4549117088317871|0.8896341323852539|0.04008304700255394|0|0|0|-1|-1|634761728.4859524|0|3.790009|99.96639|3
2021-02-11 18:42:10.287 +0000|34395.696950625|-0.646728515625|0.9480743408203125|0.2303314208984375|34395.676988625|-0.5214933888464496|-1.693116405079683|-1.085419108225837|-0.5713714957237244|-1.330205798149109|-0.6561481356620789|-0.1301902234554291|-0.1935657858848572|0.1973776817321777|XArbitraryZVertical|0.4959699252604321|0.5314851523626503|-0.2274864064182146|-0.6479099802592436|-0.4630562365055084|0.8844990134239197|0.05692526698112488|0|0|0|-1|-1|634761728.4859524|0|3.790009|99.96639|3
2021-02-11 18:42:10.307 +0000|34395.716912625|-0.7139892578125|0.672576904296875|0.1569671630859375|34395.696950625|-0.531679816363781|-1.729137884643929|-1.071143082367301|-0.05447988212108612|-1.3062424659729|-0.6571494936943054|-0.1441514492034912|0.07897734642028809|0.1828136444091797|XArbitraryZVertical|0.4914489666273549|0.5442903783437576|-0.228006627691317|-0.6404989816363463|-0.4731276333332062|0.8777487277984619|0.0755482017993927|0|0|0|-1|-1|634761728.4859524|0|3.790009|99.96639|3
2021-02-11 18:42:10.327 +0000|34395.736873625|-0.7245635986328125|0.967193603515625|0.1377105712890625|34395.716912625|-0.5269546460142439|-1.75040007004617|-1.0578801443228|-0.03469547256827354|-1.283130645751953|-0.6749146580696106|-0.2284766435623169|-0.1737309694290161|0.08009303361177444|XArbitraryZVertical|0.4848313218281284|0.5556704785548916|-0.2299202091433604|-0.6350635899132772|-0.4828271269798279|0.8713172078132629|0.08766218274831772|0|0|0|-1|-1|634761728.4859524|0|3.790009|99.96639|3
2021-02-11 18:42:10.347 +0000|34395.756835625|-0.6740875244140625|0.866851806640625|0.12890625|34395.736873625|-0.5215406389064781|-1.770860308251723|-1.045174622751724|0.1530475616455078|-1.180374979972839|-0.596903383731842|-0.2304402589797974|0.04320627450942993|0.01997590065002441|XArbitraryZVertical|0.4782064677327832|0.5667235393985464|-0.2319403845260722|-0.6295607207273203|-0.4917429685592651|0.8650121688842773|0.09971398860216141|0|0|0|-1|-1|634761728.4859524|0|3.790009|99.96639|3
2021-02-11 18:42:10.367 +0000|34395.776796625|-0.62567138671875|0.8127899169921875|0.11016845703125|34395.756835625|-0.5050748155874221|-1.777867083340626|-1.036928066322328|0.4807446300983429|-0.9176481962203979|-0.4024981260299683|-0.2025955319404602|0.05864959955215454|0.02793299406766891|XArbitraryZVertical|0.4709057496730584|0.574941590798087|-0.2357608934588179|-0.6261843262913313|-0.4979965090751648|0.8608450889587402|0.1046201139688492|0|0|0|-1|-1|634761728.4859524|0|3.790009|99.96639|3
2021-02-11 18:42:10.386 +0000|34395.796758625|-0.632568359375|0.8972625732421875|0.0227203369140625|34395.776796625|-0.4889878919462048|-1.780899345393056|-1.031968025547062|0.1876698583364487|-0.7354736924171448|-0.2779572606086731|-0.1200862526893616|-0.0281103253364563|0.04910909384489059|XArbitraryZVertical|0.4648155089634887|0.580909615446894|-0.2396839937137153|-0.6237324492681315|-0.5018466711044312|0.8583105206489563|0.107018880546093|0|0|0|-1|-1|634761728.4859524|0|3.790009|99.96639|3
2021-02-11 18:42:10.406 +0000|34395.816720625|-0.7125091552734375|0.8630218505859375|0.0708160400390625|34395.796758625|-0.4881616019510205|-1.792389334132395|-1.026971783072886|-0.5243175625801086|-0.46330326795578|-0.2433647364377975|-0.1139979362487793|0.003043889999389648|-0.08655834197998047|XArbitraryZVertical|0.4621035865103308|0.5859349632947459|-0.2407732224772922|-0.6206197007234977|-0.5047612190246582|0.8557360768318176|0.1137190088629723|0|0|0|-1|-1|634761728.4859524|0|3.790009|99.96639|3
2021-02-11 18:42:10.426 +0000|34395.83668162501|-0.6848907470703125|0.97320556640625|0.1025848388671875|34395.816720625|-0.5115156636860856|-1.817899444541695|-1.019207280254637|-0.6957510709762573|-0.1326934993267059|-0.175029531121254|-0.2014253735542297|-0.05020976066589355|-0.09817959368228912|XArbitraryZVertical|0.4642638504309946|0.5903797992243417|-0.236592759810707|-0.6163883954497502|-0.5081235766410828|0.8516928553581238|0.1281784623861313|0|0|0|-1|-1|634761728.4859524|0|3.790009|99.96639|3
2021-02-11 18:42:10.446 +0000|34395.856643625|-0.6472320556640625|0.7799072265625|0.1900177001953125|34395.83668162501|-0.5292133794416921|-1.831549361466809|-1.01512135193094|-0.3269660472869873|0.25312340259552|0.02005243301391602|-0.18254554271698|0.1842535138130188|-0.01198998093605042|XArbitraryZVertical|0.4670385818161654|0.5915015035988502|-0.2328036659779111|-0.6146570739828372|-0.5096845626831055|0.8495445847511292|0.1359981298446655|0|0|0|-1|-1|634761728.4859524|0|3.790009|99.96639|3
2021-02-11 18:42:10.466 +0000|34395.876605625|-0.663970947265625|0.961181640625|0.1967620849609375|34395.856643625|-0.5374873904992475|-1.832401046381098|-1.015015529819484|-0.07914696633815765|0.3052050173282623|0.1108730658888817|-0.1475251913070679|-0.09416347742080688|0.02141200006008148|XArbitraryZVertical|0.4693617888891786|0.5898535765266572|-0.2304191794003096|-0.6153692152233255|-0.5096555352210999|0.8494887351989746|0.1364554613828659|0|0|0|-1|-1|634761728.4859524|0|3.790009|99.96639|3
2021-02-11 18:42:10.486 +0000|34395.896566625|-0.6171722412109375|0.810272216796875|0.1497650146484375|34395.876605625|-0.5404138984081621|-1.827678143667155|-1.01802272482221|0.05625643581151962|0.4565723240375519|0.2098441123962402|-0.1545778512954712|0.1511868238449097|0.07447314262390137|XArbitraryZVertical|0.471383473705526|0.5869380508222176|-0.229529053809322|-0.6169423409563187|-0.5078214406967163|0.8510715365409851|0.1333973109722137|0|0|0|-1|-1|634761728.4859524|0|3.790009|99.96639|3
2021-02-11 18:42:10.506 +0000|34395.916528625|-0.658233642578125|0.8838348388671875|0.1200408935546875|34395.896566625|-0.5458298586482526|-1.822811839525255|-1.02386690013386|-0.2565751671791077|0.4203828871250153|0.3707109391689301|-0.119819700717926|-0.07632392644882202|0.04033146798610687|XArbitraryZVertical|0.4747241729239212|0.5826473782840919|-0.2288823594622645|-0.6186856180718691|-0.5036391019821167|0.854125440120697|0.1296820193529129|0|0|0|-1|-1|634761728.4859524|0|3.790009|99.96639|3
2021-02-11 18:42:10.526 +0000|34395.936489625|-0.6400909423828125|0.948974609375|-0.02679443359375|34395.916528625|-0.559982415063092|-1.826251811123999|-1.032054189289988|-0.2129382789134979|0.4777674674987793|0.6313555240631104|-0.1486122012138367|0.02755546569824219|-0.02408204972743988|XArbitraryZVertical|0.4801023638564554|0.5782066347783394|-0.2283731808490563|-0.618889827489508|-0.4964073896408081|0.8583546876907349|0.1296423822641373|0|0|0|-1|-1|634761728.4859524|0|3.790009|99.96639|3
2021-02-11 18:42:10.546 +0000|34395.956451625|-0.6258392333984375|0.9075775146484375|0.00469970703125|34395.936489625|-0.5731544559624255|-1.825417480836462|-1.041073370559555|0.1378015279769897|0.7920330762863159|0.5211774110794067|-0.187678337097168|0.2006058692932129|-0.05726563930511475|XArbitraryZVertical|0.4857920867270105|0.5724006731848714|-0.227449458405009|-0.6201857363588965|-0.4890031814575195|0.8629471063613892|0.1272729635238647|0|0|0|-1|-1|634761728.4859524|0|3.790009|99.96639|3
2021-02-11 18:42:10.566 +0000|34395.976413625|-0.6295013427734375|0.940155029296875|0.083526611328125|34395.956451625|-0.5675368993270176|-1.802884198423508|-1.054228626028974|0.3652963638305664|1.081438541412354|0.5732874870300293|-0.1578627526760101|-0.03085058927536011|-0.1229094266891479|XArbitraryZVertical|0.4894041539617793|0.5632800253194861|-0.2285805388288085|-0.6252601224868577|-0.4806565344333649|0.8695195317268372|0.1136016249656677|0|0|0|-1|-1|634761728.4859524|0|3.790009|99.96639|3
2021-02-11 18:42:10.586 +0000|34395.99637475|-0.47802734375|1.061935424804688|0.01702880859375|34395.99637475|-0.5226035016287985|-1.711274563987945|-1.086275760497281|1.233137011528015|1.311049818992615|0.7132219672203064|-0.02462875843048096|0.1758162975311279|-0.08155966550111771|XArbitraryZVertical|0.4943714925300011|0.5368478344666956|-0.2319279519853439|-0.6431179138386055|-0.4611957967281342|0.8848983645439148|0.06521753966808319|0|0|0|-1|-1|634761728.4859524|0|3.790009|99.96639|3
