loggingTime(txt)|accelerometerTimestamp_sinceReboot(s)|accelerometerAccelerationX(G)|accelerometerAccelerationY(G)|accelerometerAccelerationZ(G)|motionTimestamp_sinceReboot(s)|motionYaw(rad)|motionRoll(rad)|motionPitch(rad)|motionRotationRateX(rad/s)|motionRotationRateY(rad/s)|motionRotationRateZ(rad/s)|motionUserAccelerationX(G)|motionUserAccelerationY(G)|motionUserAccelerationZ(G)|motionAttitudeReferenceFrame(txt)|motionQuaternionX(R)|motionQuaternionY(R)|motionQuaternionZ(R)|motionQuaternionW(R)|motionGravityX(G)|motionGravityY(G)|motionGravityZ(G)|motionMagneticFieldX(µT)|motionMagneticFieldY(µT)|motionMagneticFieldZ(µT)|motionHeading(°)|motionMagneticFieldCalibrationAccuracy(Z)|altimeterTimestamp_sinceReboot(s)|altimeterReset(bool)|altimeterRelativeAltitude(m)|altimeterPressure(kPa)|label
2021-02-11 18:52:52.799 +0000|34956.074324375|-0.41845703125|0.3242034912109375|-0.8146209716796875|34956.069334375|2.84726316802989|-0.5505593854064034|-0.2981542909414115|0.1656392812728882|-0.4263375699520111|0.1192637979984283|0.09586155414581299|0.02771574258804321|0.005168318748474121|XArbitraryZVertical|-0.2449368066059432|0.1808039058093906|-0.9473084764929106|-0.09961286485242218|-0.5000821948051453|0.2937564253807068|-0.8146318197250366|0|0|0|-1|-1|634762372.43344|0|5.150009|99.95165|3
2021-02-11 18:52:52.819 +0000|34956.094285375|-0.426727294921875|0.316192626953125|-0.8332061767578125|34956.089295375|2.850944134602992|-0.5573236445514321|-0.2972147133791618|0.1024133116006851|-0.5114874243736267|0.06725367903709412|0.08806324005126953|0.02701181173324585|-0.01388347148895264|XArbitraryZVertical|-0.2485559213429644|0.1802435804460415|-0.9467030540629758|-0.09739481972704675|-0.5057268738746643|0.2928581833839417|-0.8114644289016724|0|0|0|-1|-1|634762372.43344|0|5.150009|99.95165|3
2021-02-11 18:52:52.839 +0000|34956.114246375|-0.4400787353515625|0.3173828125|-0.841888427734375|34956.109256375|2.853363612771712|-0.5653010596708704|-0.2963543339094938|0.1115081235766411|-0.524692177772522|0.02247724309563637|0.07179754972457886|0.02246350049972534|-0.0293278694152832|XArbitraryZVertical|-0.2526246449731664|0.1799234505955361|-0.9458636742299149|-0.09565713482324292|-0.5123188495635986|0.2920354008674622|-0.8076167106628418|0|0|0|-1|-1|634762372.43344|0|5.150009|99.95165|3
2021-02-11 18:52:52.859 +0000|34956.134208375|-0.442626953125|0.30621337890625|-0.841522216796875|34956.129217375|2.855235355996517|-0.5736102895282553|-0.2944519704943957|0.139020249247551|-0.5468332767486572|-0.04218714684247971|0.09067761898040771|0.02783876657485962|-0.03966295719146729|XArbitraryZVertical|-0.256888739124278|0.179191621816514|-0.944989329534611|-0.0943071514099556|-0.51931232213974|0.2902154624462128|-0.8037970662117004|0|0|0|-1|-1|634762372.43344|0|5.150009|99.95165|3
2021-02-11 18:52:52.878 +0000|34956.154169375|-0.45330810546875|0.2849273681640625|-0.838531494140625|34956.149178375|2.856271884666517|-0.5818303714550429|-0.2922934323524288|0.1366512924432755|-0.508551299571991|-0.08654165267944336|0.07632428407669067|0.005307883024215698|-0.04128587245941162|XArbitraryZVertical|-0.2610537485358591|0.1784365494413595|-0.9440799214515214|-0.09340526382206328|-0.5262450575828552|0.2881491482257843|-0.8000226616859436|0|0|0|-1|-1|634762372.43344|0|5.150009|99.95165|3
2021-02-11 18:52:52.898 +0000|34956.174130375|-0.435699462890625|0.263092041015625|-0.823486328125|34956.169140375|2.856758509814965|-0.5893112671818732|-0.2901374872512896|0.1067377030849457|-0.468325138092041|-0.09406943619251251|0.0861021876335144|-0.009747296571731567|-0.03613972663879395|XArbitraryZVertical|-0.2648165179538303|0.1777164793320995|-0.9432235560959238|-0.09283554305178336|-0.5325591564178467|0.2860839664936066|-0.7965781092643738|0|0|0|-1|-1|634762372.43344|0|5.150009|99.95165|3
2021-02-11 18:52:52.918 +0000|34956.194091375|-0.400726318359375|0.268341064453125|-0.803192138671875|34956.189101375|2.856712667287458|-0.5964220241272205|-0.2882422643912616|0.07990302890539169|-0.4656652212142944|-0.1062136217951775|0.1206820607185364|-0.02355575561523438|-0.01952582597732544|XArbitraryZVertical|-0.2683312273033719|0.1771700056036309|-0.942364040836331|-0.09251595582764785|-0.5385134816169739|0.2842674553394318|-0.7932182550430298|0|0|0|-1|-1|634762372.43344|0|5.150009|99.95165|3
2021-02-11 18:52:52.938 +0000|34956.214052375|-0.3917999267578125|0.2865142822265625|-0.7907867431640625|34956.209062375|2.856659319058308|-0.6039913815183288|-0.2863114128445467|0.09624320268630981|-0.5299129486083984|-0.1061694994568825|0.1544319987297058|-0.00389707088470459|-0.009456753730773926|XArbitraryZVertical|-0.272061309464683|0.1766289645593414|-0.9414295859602508|-0.09216993085410151|-0.5448129177093506|0.2824157178401947|-0.7895696759223938|0|0|0|-1|-1|634762372.43344|0|5.150009|99.95165|3
2021-02-11 18:52:52.959 +0000|34956.234013375|-0.4495697021484375|0.2953948974609375|-0.785369873046875|34956.229023375|2.856524198300423|-0.6131945411914063|-0.2839210037273788|0.08030638843774796|-0.6102333664894104|-0.1195409670472145|0.1385637521743774|0.006834983825683594|-0.001655697822570801|XArbitraryZVertical|-0.2765894680411984|0.1759607028870936|-0.9402710625781429|-0.0917961519418261|-0.5524432063102722|0.2801218032836914|-0.7850722074508667|0|0|0|-1|-1|634762372.43344|0|5.150009|99.95165|3
2021-02-11 18:52:52.978 +0000|34956.253974375|-0.5344696044921875|0.2909088134765625|-0.77923583984375|34956.248984375|2.855840322258691|-0.6238612484229704|-0.2815338210128902|0.03666021302342415|-0.6647868156433105|-0.1304438710212708|0.07899695634841919|0.01698565483093262|-0.004595816135406494|XArbitraryZVertical|-0.2817511956419245|0.1754382100553369|-0.9388581615363341|-0.09155911594286678|-0.561174750328064|0.2778294086456299|-0.7796754240989685|0|0|0|-1|-1|634762372.43344|0|5.150009|99.95165|3
2021-02-11 18:52:52.998 +0000|34956.273936375|-0.6362152099609375|0.263763427734375|-0.7622222900390625|34956.268945375|2.854916153839121|-0.6343432450635025|-0.2802389314119744|-0.05039114877581596|-0.6106894016265869|-0.06459277123212814|-0.02730321884155273|0.006923019886016846|0.002982497215270996|XArbitraryZVertical|-0.2867015288159386|0.175449296567505|-0.9373832778597637|-0.09128170093647081|-0.5695290565490723|0.2765852808952332|-0.7740395665168762|0|0|0|-1|-1|634762372.43344|0|5.150009|99.95165|3
2021-02-11 18:52:53.018 +0000|34956.293897375|-0.626068115234375|0.229888916015625|-0.7336578369140625|34956.288906375|2.853715565390441|-0.6423017431159755|-0.2824283800450447|-0.2359324097633362|-0.4905647337436676|-0.01561394985765219|-0.07422918081283569|-0.03601285815238953|0.02052170038223267|XArbitraryZVertical|-0.2901282434560734|0.1769963548797475|-0.9360854794049741|-0.09078536359120397|-0.5753070116043091|0.2786886394023895|-0.7689957618713379|0|0|0|-1|-1|634762372.43344|0|5.150009|99.95165|3
2021-02-11 18:52:53.038 +0000|34956.313858375|-0.61639404296875|0.220367431640625|-0.667633056640625|34956.308868375|2.848733207617947|-0.6513194945771034|-0.2874649662603419|-0.4231662154197693|-0.6040881872177124|-0.1146537140011787|0.01188653707504272|-0.05810403823852539|0.05052304267883301|XArbitraryZVertical|-0.2934453234062734|0.1804563969859668|-0.9343220189984754|-0.09147639736132623|-0.58135986328125|0.2835221290588379|-0.7626506686210632|0|0|0|-1|-1|634762372.43344|0|5.150009|99.95165|3
2021-02-11 18:52:53.058 +0000|34956.333819375|-0.6286163330078125|0.177520751953125|-0.6110076904296875|34956.328829375|2.839959629940608|-0.6633703400826049|-0.2934243308364316|-0.5756397247314453|-0.6223137974739075|-0.196992889046669|-0.04619359970092773|-0.08355867862701416|0.1184874176979065|XArbitraryZVertical|-0.2977151246039269|0.1850493954344597|-0.9318725338913799|-0.09346688702781779|-0.589457094669342|0.2892318964004517|-0.754244863986969|0|0|0|-1|-1|634762372.43344|0|5.150009|99.95165|3
2021-02-11 18:52:53.078 +0000|34956.353780375|-0.6839599609375|0.138519287109375|-0.5462646484375|34956.348790375|2.829067115583934|-0.679940086555254|-0.3020336790934138|-0.7703698873519897|-0.7500227093696594|-0.09375828504562378|-0.04600071907043457|-0.1802139282226562|0.1485692262649536|XArbitraryZVertical|-0.3035738466632754|0.1914094351035322|-0.9284858821297455|-0.09549484414365696|-0.6002852916717529|0.2974624335765839|-0.7424107193946838|0|0|0|-1|-1|634762372.43344|0|5.150009|99.95165|3
2021-02-11 18:52:53.098 +0000|34956.373741375|-0.63720703125|0.084625244140625|-0.4859466552734375|34956.368751375|2.816374055975813|-0.6994727147450347|-0.3139725140363718|-0.9330087900161743|-0.8365669250488281|-0.06525163352489471|-0.04059797525405884|-0.1959854066371918|0.2049634456634521|XArbitraryZVertical|-0.3101934118108061|0.199730906908551|-0.9243423391666964|-0.0973587561286935|-0.6123409271240234|0.3088393807411194|-0.7277752161026001|0|0|0|-1|-1|634762372.43344|0|5.150009|99.95165|3
2021-02-11 18:52:53.118 +0000|34956.393703375|-0.6099853515625|0.0571746826171875|-0.4491729736328125|34956.388712375|2.801638474817023|-0.7223703955136273|-0.3280206816732585|-1.012261748313904|-1.02235746383667|-0.08123859018087387|0.002423405647277832|-0.2582966089248657|0.2608984708786011|XArbitraryZVertical|-0.3177788975221404|0.2095160585380097|-0.9193846632825529|-0.09925427150280335|-0.6259128451347351|0.3221698701381683|-0.7102391719818115|0|0|0|-1|-1|634762372.43344|0|5.150009|99.95165|3
2021-02-11 18:52:53.138 +0000|34956.413664375|-0.714447021484375|0.1837921142578125|-0.4684295654296875|34956.408673375|2.78521603854187|-0.7513438536470214|-0.3417567532408662|-1.005102753639221|-1.320771813392639|-0.1406542509794235|-0.009734213352203369|-0.2201372683048248|0.2445858120918274|XArbitraryZVertical|-0.3277908739461172|0.2197687000410828|-0.913256460898317|-0.1010821406215055|-0.6431436538696289|0.3351427614688873|-0.6885097026824951|0|0|0|-1|-1|634762372.43344|0|5.150009|99.95165|3
2021-02-11 18:52:53.158 +0000|34956.433625375|-0.8520355224609375|0.313751220703125|-0.502044677734375|34956.428635375|2.769737404228932|-0.7841005158372143|-0.3527447547554057|-0.7568768858909607|-1.39555287361145|-0.1354509592056274|-0.1331760883331299|-0.08032289147377014|0.18211430311203|XArbitraryZVertical|-0.339699354925364|0.2288879374961942|-0.9065041827890209|-0.1022976407729422|-0.6627071499824524|0.3454748690128326|-0.6644293069839478|0|0|0|-1|-1|634762372.43344|0|5.150009|99.95165|3
2021-02-11 18:52:53.178 +0000|34956.453586375|-0.90966796875|0.3887481689453125|-0.5401611328125|34956.448596375|2.759391336189934|-0.8150294465261357|-0.3587418695226912|-0.3370473980903625|-1.331825971603394|-0.1191873028874397|-0.2063546776771545|0.005837112665176392|0.1192057728767395|XArbitraryZVertical|-0.35175886494408|0.2348892746570236|-0.9003638003464958|-0.1021653363745251|-0.6814169883728027|0.3510964810848236|-0.6421854496002197|0|0|0|-1|-1|634762372.43344|0|5.150009|99.95165|3
2021-02-11 18:52:53.198 +0000|34956.473547375|-0.883270263671875|0.362548828125|-0.5664825439453125|34956.468557375|2.757041271581683|-0.841257370172198|-0.3580550781694428|0.2068912982940674|-1.209780693054199|-0.08608820289373398|-0.210610032081604|0.04712969064712524|0.07216161489486694|XArbitraryZVertical|-0.3633412760067447|0.2363378503568088|-0.8955850357466327|-0.1002748203276173|-0.6982035040855408|0.3504533171653748|-0.6242550611495972|0|0|0|-1|-1|634762372.43344|0|5.150009|99.95165|3
2021-02-11 18:52:53.223 +0000|34956.493508375|-0.829681396484375|0.2332763671875|-0.5347900390625|34956.488518375|2.762123421611054|-0.8629636892277947|-0.3517153040028553|0.5449772477149963|-1.147074341773987|-0.08468632400035858|-0.1469370126724243|-0.05431696772575378|0.056690514087677|XArbitraryZVertical|-0.3744060013732162|0.2337243687856727|-0.8920874118054035|-0.09681538516273235|-0.7132619619369507|0.3445086181163788|-0.6103861331939697|0|0|0|-1|-1|634762372.43344|0|5.150009|99.95165|3
2021-02-11 18:52:53.238 +0000|34956.513469375|-0.76849365234375|0.121917724609375|-0.5235748291015625|34956.508479375|2.771238304162376|-0.8824615485826405|-0.3424813373930252|0.6930916309356689|-1.110577940940857|-0.05651451274752617|-0.07229089736938477|-0.1485695242881775|0.07481503486633301|XArbitraryZVertical|-0.3852421845867059|0.2289296817550702|-0.8891676419262936|-0.09252410294021678|-0.72745281457901|0.3358253538608551|-0.5983593463897705|0|0|0|-1|-1|634762372.43344|0|5.150009|99.95165|3
2021-02-11 18:52:53.258 +0000|34956.533431375|-0.67803955078125|0.049041748046875|-0.51287841796875|34956.528440375|2.781893344465724|-0.9008861937476713|-0.3332417901160798|0.663153350353241|-1.107418298721313|-0.03465386852622032|0.0180671215057373|-0.2493188679218292|0.0835527777671814|XArbitraryZVertical|-0.395701600800965|0.223699980797378|-0.8863834565921326|-0.08776781957753022|-0.7407540082931519|0.3271082043647766|-0.5867571234703064|0|0|0|-1|-1|634762372.43344|0|5.150009|99.95165|3
2021-02-11 18:52:53.278 +0000|34956.553392375|-0.733062744140625|0.1309356689453125|-0.5019073486328125|34956.548402375|2.791527830792191|-0.9211808246650568|-0.3249911472281925|0.5687000751495361|-1.216731429100037|-0.05052390694618225|0.07567697763442993|-0.2509715855121613|0.05675280094146729|XArbitraryZVertical|-0.4066833063605401|0.219089545885169|-0.8830051192535873|-0.0831285469759349|-0.7546320557594299|0.3193003833293915|-0.5732169151306152|0|0|0|-1|-1|634762372.43344|0|5.150009|99.95165|3
2021-02-11 18:52:53.298 +0000|34956.57335325|-0.78924560546875|0.1729583740234375|-0.4818878173828125|34956.56836325|2.801331832590614|-0.9410028087655742|-0.3173292273060112|0.6579322814941406|-1.067104339599609|0.01703125610947609|-0.02236121892929077|-0.1529573798179626|0.06048715114593506|XArbitraryZVertical|-0.4173319707242569|0.2145885830409215|-0.8795653735263264|-0.07842572495711569|-0.7678000330924988|0.3120302557945251|-0.5595715045928955|0|0|0|-1|-1|634762372.43344|0|5.150009|99.95165|3
2021-02-11 18:52:53.318 +0000|34956.59331425|-0.7495269775390625|0.1907958984375|-0.4488067626953125|34956.58832425|2.814228493633863|-0.9569059855588423|-0.3095928671675875|0.7973515391349792|-0.9504446983337402|0.06815462559461594|0.01622229814529419|-0.1169725358486176|0.08116626739501953|XArbitraryZVertical|-0.4265184887617083|0.20916374566075|-0.8769377927819481|-0.07288816737156832|-0.778551459312439|0.3046708703041077|-0.5486649870872498|0|0|0|-1|-1|634762372.43344|0|5.150009|99.95165|3
2021-02-11 18:52:53.338 +0000|34956.61327525001|-0.7179107666015625|0.2127838134765625|-0.39776611328125|34956.60828525|2.830738810502032|-0.9701517020420181|-0.3008329301290569|1.001230478286743|-0.8942773342132568|0.1003283634781837|0.0564766526222229|-0.1009270250797272|0.1150793433189392|XArbitraryZVertical|-0.4349323537907205|0.202330499350144|-0.8749237163689693|-0.06636856484308393|-0.7879220247268677|0.2963158190250397|-0.5397924184799194|0|0|0|-1|-1|634762372.43344|0|5.150009|99.95165|3
2021-02-11 18:52:53.358 +0000|34956.63323625|-0.745086669921875|0.256500244140625|-0.3908233642578125|34956.62824625|2.851436478589643|-0.9821499978718027|-0.290099481460232|1.268643140792847|-0.9385978579521179|0.09915870428085327|0.07928973436355591|-0.06813681125640869|0.1479717493057251|XArbitraryZVertical|-0.4432929888894312|0.1935810232954751|-0.8732537042116914|-0.0587006127216314|-0.7969411611557007|0.2860475480556488|-0.5320354104042053|0|0|0|-1|-1|634762372.43344|0|5.150009|99.95165|3
2021-02-11 18:52:53.378 +0000|34956.65319825|-0.8997802734375|0.272216796875|-0.3979949951171875|34956.64820725|2.876523725038755|-0.9943588332098778|-0.2762676143490954|1.487220883369446|-0.9723607897758484|0.07576833665370941|-0.01755565404891968|-0.0007787942886352539|0.1248061656951904|XArbitraryZVertical|-0.4522693308775821|0.1823898756196552|-0.8716031704119717|-0.04994422807956155|-0.8066173791885376|0.2727667093276978|-0.5243727564811707|0|0|0|-1|-1|634762372.43344|0|5.150009|99.95165|3
2021-02-11 18:52:53.398 +0000|34956.67315925|-1.015579223632812|0.272735595703125|-0.41595458984375|34956.66816825001|2.903808753200276|-1.006343388444642|-0.2609649187319248|1.538428544998169|-0.9505116939544678|0.04834337159991264|-0.1426331400871277|0.01160988211631775|0.108500599861145|XArbitraryZVertical|-0.4612121632991998|0.1698906922787289|-0.8699205421823986|-0.04072950521188472|-0.8162750005722046|0.2580129206180573|-0.5168409943580627|0|0|0|-1|-1|634762372.43344|0|5.150009|99.95165|3
2021-02-11 18:52:53.418 +0000|34956.69312025001|-1.10894775390625|0.2303924560546875|-0.431732177734375|34956.68813025|2.930564648279745|-1.017936525992869|-0.2457072633168044|1.45235002040863|-0.860872745513916|0.03729924187064171|-0.2444953918457031|0.009504139423370361|0.08645409345626831|XArbitraryZVertical|-0.4696440734211066|0.1573492053730282|-0.8681350124389858|-0.03189468771709607|-0.8254661560058594|0.2432424128055573|-0.509351372718811|0|0|0|-1|-1|634762372.43344|0|5.150009|99.95165|3
2021-02-11 18:52:53.438 +0000|34956.71308125|-1.130447387695312|0.2033233642578125|-0.4473876953125|34956.70809125|2.954787111506173|-1.02819984277837|-0.2322251132103962|1.237927794456482|-0.7492533922195435|0.0213378518819809|-0.2851167321205139|-0.040980264544487|0.05679130554199219|XArbitraryZVertical|-0.4769026099611269|0.1459919679366092|-0.8664162906709738|-0.02394216643520351|-0.8333830833435059|0.2301434725522995|-0.5025004744529724|0|0|0|-1|-1|634762372.43344|0|5.150009|99.95165|3
2021-02-11 18:52:53.458 +0000|34956.73304225|-1.136947631835938|0.2167510986328125|-0.44580078125|34956.72805225|2.974155435393995|-1.037115302293409|-0.2210430878789912|0.968397855758667|-0.5668141841888428|-0.008903317153453827|-0.3036836981773376|-0.01215516030788422|0.05428171157836914|XArbitraryZVertical|-0.4828680670835981|0.1366529676903792|-0.8647837522154554|-0.01770989064181145|-0.8399931192398071|0.2192474454641342|-0.4963288009166718|0|0|0|-1|-1|634762372.43344|0|5.150009|99.95165|3
2021-02-11 18:52:53.478 +0000|34956.75300325|-1.058029174804688|0.187744140625|-0.41571044921875|34956.74801325|2.989192341347793|-1.043318985784731|-0.2122930411746042|0.7345451712608337|-0.4007654786109924|-0.008196247741580009|-0.2553858160972595|-0.01319228112697601|0.05486029386520386|XArbitraryZVertical|-0.4870843842722734|0.1293108522412901|-0.8636311915169816|-0.01298723199663143|-0.8446813225746155|0.2107020169496536|-0.4920549988746643|0|0|0|-1|-1|634762372.43344|0|5.150009|99.95165|3
2021-02-11 18:52:53.498 +0000|34956.77296525001|-1.000823974609375|0.1578216552734375|-0.401397705078125|34956.76797425|2.999694201871209|-1.048452840480297|-0.2058191701318343|0.4773083925247192|-0.3524150848388672|-0.04476482421159744|-0.1777470707893372|-0.03205160796642303|0.08233088254928589|XArbitraryZVertical|-0.4903382502534202|0.1240047540735639|-0.8626101311926675|-0.009754904216482551|-0.8483607769012451|0.2043691128492355|-0.4883824288845062|0|0|0|-1|-1|634762372.43344|0|5.150009|99.95165|3
2021-02-11 18:52:53.518 +0000|34956.79292625|-1.000244140625|0.1487579345703125|-0.38470458984375|34956.78793525|3.004808866425313|-1.054655812124608|-0.2014144662007853|0.1654475778341293|-0.3649125099182129|-0.08994037657976151|-0.1418853998184204|-0.04980212450027466|0.09107902646064758|XArbitraryZVertical|-0.4935686297722815|0.1208920193069091|-0.861223864390932|-0.008281301675730955|-0.8521484732627869|0.200055405497551|-0.4835502505302429|0|0|0|-1|-1|634762372.43344|0|5.150009|99.95165|3
2021-02-11 18:52:53.538 +0000|34956.81288725|-1.013168334960938|0.1755828857421875|-0.3705596923828125|34956.80789725|3.004290472024372|-1.061605967845929|-0.1993658430145901|-0.1077294200658798|-0.3121364712715149|-0.1128334403038025|-0.1481226682662964|-0.04422393441200256|0.0917980968952179|XArbitraryZVertical|-0.4966391441537827|0.120175461486431|-0.8595541659563146|-0.008604700627310485|-0.8558446168899536|0.1980477720499039|-0.4778148233890533|0|0|0|-1|-1|634762372.43344|0|5.150009|99.95165|3
2021-02-11 18:52:53.558 +0000|34956.83284825|-0.9857330322265625|0.236083984375|-0.3525543212890625|34956.82785825|2.99930535662088|-1.067286147884481|-0.1993754764460917|-0.2915452122688293|-0.1383029073476791|-0.1155993118882179|-0.1563035845756531|0.01613040268421173|0.1098010540008545|XArbitraryZVertical|-0.4987766406425408|0.1214471212741136|-0.8581167897909444|-0.01039985576680136|-0.8585432767868042|0.1980572193861008|-0.4729449152946472|0|0|0|-1|-1|634762372.43344|0|5.150009|99.95165|3
2021-02-11 18:52:53.578 +0000|34956.85280925001|-0.86883544921875|0.2657623291015625|-0.3055267333984375|34956.84781925|2.99265808967445|-1.06988273445189|-0.2001935070510635|-0.3160333335399628|-0.02024449780583382|-0.1357770264148712|-0.06400376558303833|0.05872464179992676|0.13938307762146|XArbitraryZVertical|-0.4994370705077739|0.1234689032271604|-0.8574101784248509|-0.01288251572028932|-0.8596260547637939|0.1988589763641357|-0.4706360995769501|0|0|0|-1|-1|634762372.43344|0|5.150009|99.95165|3
2021-02-11 18:52:53.597 +0000|34956.87277025|-0.8192291259765625|0.245635986328125|-0.2869415283203125|34956.86778025|2.985353004984451|-1.071876179153673|-0.2005683027355344|-0.3431436717510223|-0.05039473250508308|-0.1731704622507095|0.02500194311141968|0.06009684503078461|0.1807389259338379|XArbitraryZVertical|-0.4998150121776901|0.125467269021371|-0.8568509866889001|-0.01579307636950109|-0.860496997833252|0.1992262750864029|-0.4688858389854431|0|0|0|-1|-1|634762372.43344|0|5.150009|99.95165|3
2021-02-11 18:52:53.617 +0000|34956.89273225|-0.86737060546875|0.240020751953125|-0.3145599365234375|34956.88774125|2.97650510744299|-1.075770683942938|-0.2008624228523517|-0.4490942656993866|-0.1590498387813568|-0.2089592665433884|0.03737479448318481|0.04386317729949951|0.1688418686389923|XArbitraryZVertical|-0.5009045902345696|0.1278396904546214|-0.8557924738902236|-0.01925915799715528|-0.8622649312019348|0.1995144933462143|-0.4655032157897949|0|0|0|-1|-1|634762372.43344|0|5.150009|99.95165|3
2021-02-11 18:52:53.637 +0000|34956.91269325|-0.9421539306640625|0.24188232421875|-0.3536834716796875|34956.90770225|2.964668736829893|-1.084272629829386|-0.2015242050936018|-0.5671202540397644|-0.1638264805078506|-0.2144903838634491|-0.04527199268341064|0.04217717051506042|0.1187688112258911|XArbitraryZVertical|-0.5037301208202176|0.1311834910700271|-0.8535163663017963|-0.02359556272189832|-0.8660745024681091|0.2001629173755646|-0.4580937027931213|0|0|0|-1|-1|634762372.43344|0|5.150009|99.95165|3
2021-02-11 18:52:53.657 +0000|34956.93265425001|-0.960174560546875|0.232879638671875|-0.361907958984375|34956.92766425|2.951135026740783|-1.092229135563167|-0.2044339097026469|-0.6575344204902649|-0.08424084633588791|-0.1822311580181122|-0.09014892578125|0.03952555358409882|0.09032261371612549|XArbitraryZVertical|-0.5060278894698532|0.1359288702327627|-0.8512760868165845|-0.02807464141049302|-0.8691712021827698|0.2030128836631775|-0.4509182274341583|0|0|0|-1|-1|634762372.43344|0|5.150009|99.95165|3
2021-02-11 18:52:53.677 +0000|34956.95261525|-0.9499053955078125|0.2191619873046875|-0.339111328125|34956.94762525|2.936397461992237|-1.098280680665684|-0.2098168909164239|-0.7338750958442688|0.05703249573707581|-0.1175967678427696|-0.08489704132080078|0.01172041893005371|0.08854854106903076|XArbitraryZVertical|-0.5072069568824392|0.1420138285895968|-0.8494211641246766|-0.03250970116772497|-0.8708983063697815|0.2082808166742325|-0.4451463520526886|0|0|0|-1|-1|634762372.43344|0|5.150009|99.95165|3
2021-02-11 18:52:53.697 +0000|34956.97257625|-0.88177490234375|0.2331390380859375|-0.268646240234375|34956.96758625|2.92121251067782|-1.100580285550941|-0.216776550509535|-0.7927059531211853|0.2882320582866669|-0.04192589595913887|-0.05679237842559814|0.01549281179904938|0.1369635164737701|XArbitraryZVertical|-0.5065732886927417|0.1488154224205448|-0.8484524841209936|-0.03695703254563183|-0.8706063032150269|0.2150827348232269|-0.4424749612808228|0|0|0|-1|-1|634762372.43344|0|5.150009|99.95165|3
2021-02-11 18:52:53.735 +0000|34956.99253725|-0.73162841796875|0.2013702392578125|-0.1859283447265625|34956.98754725|2.906347538286588|-1.099239399112331|-0.224759291061863|-0.7942067980766296|0.3493146896362305|0.04433513805270195|0.07031339406967163|-0.01059146225452423|0.219627171754837|XArbitraryZVertical|-0.5042594113612241|0.1558798289468662|-0.8483639206906521|-0.04126242438931541|-0.8684549331665039|0.222871720790863|-0.4428478479385376|0|0|0|-1|-1|634762372.43344|0|5.150009|99.95165|3
2021-02-11 18:52:53.737 +0000|34957.01249925|-0.67498779296875|0.203643798828125|-0.1731414794921875|34957.00750825|2.891872784386733|-1.099118279043788|-0.2335080365185912|-0.8203120231628418|0.1901511996984482|0.09065460413694382|0.1814199686050415|-0.04122146964073181|0.2717316150665283|XArbitraryZVertical|-0.50234601269588|0.1631667972589184|-0.8479332052352161|-0.04510568274733897|-0.8666312098503113|0.2313917726278305|-0.4420501589775085|0|0|0|-1|-1|634762372.43344|0|5.150009|99.95165|3
2021-02-11 18:52:53.757 +0000|34957.03246025|-0.7095947265625|0.2106475830078125|-0.2225341796875|34957.02747025|2.87700315227942|-1.100877973753225|-0.2430657627815275|-0.9100960493087769|-0.00934577826410532|0.1035710349678993|0.1844117045402527|-0.03923286497592926|0.2435190677642822|XArbitraryZVertical|-0.5010366161882821|0.1709118596483415|-0.846980577946814|-0.04873761043093153|-0.86539626121521|0.2406793981790543|-0.4395028948783875|0|0|0|-1|-1|634762372.43344|0|5.150009|99.95165|3
2021-02-11 18:52:53.777 +0000|34957.05242125|-0.7835540771484375|0.226959228515625|-0.283203125|34957.04743125|2.860308293986384|-1.105836554917733|-0.2538527127563017|-1.028979659080505|-0.04230596497654915|0.1308002471923828|0.1134544014930725|-0.02443522214889526|0.1775625944137573|XArbitraryZVertical|-0.5007038325571105|0.1796863243713079|-0.8451339501548258|-0.05250905593190732|-0.8651939630508423|0.2511350512504578|-0.43401700258255|0|0|0|-1|-1|634762372.43344|0|5.150009|99.95165|3
2021-02-11 18:52:53.797 +0000|34957.07238225|-0.763427734375|0.239166259765625|-0.3068084716796875|34957.06739225|2.842334784934231|-1.110327141023041|-0.2663840820891537|-1.076494455337524|0.0651041641831398|0.2055694758892059|0.07944154739379883|-0.02491778135299683|0.1245876252651215|XArbitraryZVertical|-0.4997534471033033|0.1894700368750152|-0.8433105190883987|-0.05634715130395331|-0.8642468452453613|0.2632447779178619|-0.4286952018737793|0|0|0|-1|-1|634762372.43344|0|5.150009|99.95165|3
2021-02-11 18:52:53.817 +0000|34957.09234325|-0.680938720703125|0.2053375244140625|-0.2486114501953125|34957.08735325|2.824547156828193|-1.112755503793794|-0.2804781122541711|-1.092920660972595|0.1804116815328598|0.2859824597835541|0.1340427994728088|-0.04874199628829956|0.1404733061790466|XArbitraryZVertical|-0.4976347902498923|0.1997584686192639|-0.8419474418088652|-0.05984022328406145|-0.8618718385696411|0.2768151164054871|-0.4249123334884644|0|0|0|-1|-1|634762372.43344|0|5.150009|99.95165|3
2021-02-11 18:52:53.837 +0000|34957.11230425|-0.6172332763671875|0.168121337890625|-0.17816162109375|34957.10731425|2.806851320495113|-1.114113358791962|-0.2957354481490315|-1.109701991081238|0.1738593131303787|0.3147766292095184|0.2230895161628723|-0.1160589456558228|0.204087108373642|XArbitraryZVertical|-0.4947805959851037|0.2104214932352851|-0.8407964103467055|-0.06305807367333982|-0.8585570454597473|0.2914434373378754|-0.4218299090862274|0|0|0|-1|-1|634762372.43344|0|5.150009|99.95165|3
2021-02-11 18:52:53.857 +0000|34957.13226625|-0.6168060302734375|0.19134521484375|-0.114898681640625|34957.12727525|2.789081268648684|-1.116717774313924|-0.3108311721591627|-1.077492594718933|0.09678556025028229|0.2903004288673401|0.2481946349143982|-0.1227903962135315|0.2705355882644653|XArbitraryZVertical|-0.4922808786657034|0.2210250295207731|-0.8393015483549705|-0.06618499488869892|-0.8556013107299805|0.305850088596344|-0.4176149368286133|0|0|0|-1|-1|634762372.43344|0|5.150009|99.95165|3
2021-02-11 18:52:53.877 +0000|34957.15222725|-0.654205322265625|0.2091827392578125|-0.063232421875|34957.14723725|2.771091983188561|-1.120978104703259|-0.3249099059750952|-1.07752537727356|0.03290607035160065|0.2319294512271881|0.2141889333724976|-0.1259098052978516|0.3265883922576904|XArbitraryZVertical|-0.4903918475760351|0.2312778048494567|-0.837379162114532|-0.06944550804081868|-0.8534102439880371|0.3192234039306641|-0.4120528399944305|0|0|0|-1|-1|634762372.43344|0|5.150009|99.95165|3
2021-02-11 18:52:53.897 +0000|34957.17218825|-0.7014617919921875|0.2110443115234375|0.0191802978515625|34957.16719825|2.751563069246077|-1.127385552283174|-0.3380801376335478|-1.167845606803894|-0.06065477058291435|0.1500570327043533|0.1775699257850647|-0.1165428459644318|0.3737772703170776|XArbitraryZVertical|-0.4891547584085881|0.2415760344300284|-0.8348645613698705|-0.07327948809348238|-0.8521611094474792|0.3316765129566193|-0.4047372937202454|0|0|0|-1|-1|634762372.43344|0|5.150009|99.95165|3
2021-02-11 18:52:53.917 +0000|34957.19214925|-0.8416595458984375|0.154754638671875|0.1229705810546875|34957.18715925|2.727605124714914|-1.138876600329707|-0.3496897708804984|-1.404664516448975|-0.2934681177139282|-0.06661570817232132|0.1031550765037537|-0.1595772206783295|0.4688874483108521|XArbitraryZVertical|-0.4894952257993678|0.2524963692842397|-0.8309345634063039|-0.07866220802262312|-0.8532008528709412|0.3426063656806946|-0.393280029296875|0|0|0|-1|-1|634762372.43344|0|5.150009|99.95165|3
2021-02-11 18:52:53.937 +0000|34957.21211025|-0.9770050048828125|0.1689605712890625|0.1513824462890625|34957.20712025|2.695984174079578|-1.157253365378229|-0.3593459692477581|-1.689419627189636|-0.4580515623092651|-0.2580859661102295|-0.07087117433547974|-0.1903918981552124|0.5256330966949463|XArbitraryZVertical|-0.4917108138973117|0.2648136347603133|-0.8249709271986021|-0.08670243212561279|-0.8572142124176025|0.3516620397567749|-0.3761884272098541|0|0|0|-1|-1|634762372.43344|0|5.150009|99.95165|3
2021-02-11 18:52:53.957 +0000|34957.23207225|-1.141311645507812|0.1543426513671875|0.1164703369140625|34957.22708125|2.65544211674305|-1.18201879843807|-0.3671578219852857|-2.116495370864868|-0.5584467053413391|-0.496037632226944|-0.1950786113739014|-0.2073681056499481|0.5062291622161865|XArbitraryZVertical|-0.4952467475912329|0.2789870295152121|-0.8169065769294344|-0.0977780715977223|-0.8636983036994934|0.3589641451835632|-0.3537937998771667|0|0|0|-1|-1|634762372.43344|0|5.150009|99.95165|3
2021-02-11 18:52:53.977 +0000|34957.25203325|-1.252288818359375|0.20587158203125|0.061065673828125|34957.24704225|2.604217142401569|-1.21125058954221|-0.3737703828532266|-2.54440450668335|-0.4876701831817627|-0.6023881435394287|-0.3391119241714478|-0.1992650926113129|0.4150198996067047|XArbitraryZVertical|-0.4987428466865698|0.2957657115769818|-0.806924614572479|-0.1124759803859713|-0.8714288473129272|0.3651280701160431|-0.3275564312934875|0|0|0|-1|-1|634762372.43344|0|5.150009|99.95165|3
2021-02-11 18:52:53.997 +0000|34957.27199425|-1.22186279296875|0.376129150390625|0.008636474609375|34957.26700425|2.547340397078005|-1.241015983650418|-0.3799621614176144|-2.583954334259033|-0.4081811606884003|-0.6250933408737183|-0.3729362487792969|-0.07799288630485535|0.347110390663147|XArbitraryZVertical|-0.5009864479764353|0.3140750558777697|-0.7960835810715783|-0.1289203142564876|-0.8786354660987854|0.3708853423595428|-0.3007388710975647|0|0|0|-1|-1|634762372.43344|0|5.150009|99.95165|3
2021-02-11 18:52:54.017 +0000|34957.29195525|-1.259628295898438|0.3983154296875|-0.04888916015625|34957.28696525|2.493035405942536|-1.269562147390907|-0.3816651564001485|-2.295267820358276|-0.4301070868968964|-0.7807358503341675|-0.3267559409141541|0.03770515322685242|0.2546289265155792|XArbitraryZVertical|-0.5032277261788131|0.3302827933631684|-0.7852182412869385|-0.1452839483312351|-0.8862567543983459|0.3724663257598877|-0.2753502726554871|0|0|0|-1|-1|634762372.43344|0|5.150009|99.95165|3
2021-02-11 18:52:54.037 +0000|34957.31191625|-1.297821044921875|0.391998291015625|-0.1650543212890625|34957.30692625|2.442629216952082|-1.29611337777318|-0.3783545489576203|-2.095606565475464|-0.3717869520187378|-0.869377076625824|-0.4127535820007324|-0.002372264862060547|0.1656321287155151|XArbitraryZVertical|-0.5056941201685543|0.3438670086907969|-0.7745692038444728|-0.1614668709919537|-0.8944364190101624|0.3693918883800507|-0.2520578801631927|0|0|0|-1|-1|634762372.43344|0|5.150009|99.95165|3
2021-02-11 18:52:54.057 +0000|34957.33187725|-1.249649047851562|0.418548583984375|-0.261138916015625|34957.32688725|2.397214195368518|-1.320675031397335|-0.371112646833373|-1.790037631988525|-0.4229344725608826|-0.9468202590942383|-0.3729690313339233|0.07402348518371582|0.01955080032348633|XArbitraryZVertical|-0.5085903268375035|0.3549650969029433|-0.7642351506262846|-0.1768624373306641|-0.9029251933097839|0.3626525700092316|-0.2306713163852692|0|0|0|-1|-1|634762372.43344|0|5.150009|99.95165|3
2021-02-11 18:52:54.077 +0000|34957.35183925|-1.21527099609375|0.39154052734375|-0.35699462890625|34957.34684825|2.356949426942863|-1.345086875204219|-0.3598760806872235|-1.648255109786987|-0.5776596069335938|-1.026172041893005|-0.3168640732765198|0.04379203915596008|-0.105998620390892|XArbitraryZVertical|-0.5128267860341444|0.3637003456451071|-0.7537661072837457|-0.1912261000899294|-0.9122008681297302|0.35215824842453|-0.2094614952802658|0|0|0|-1|-1|634762372.43344|0|5.150009|99.95165|3
2021-02-11 18:52:54.096 +0000|34957.37180025|-1.170852661132812|0.41607666015625|-0.3553466796875|34957.36680925|2.318502051960387|-1.371218709349332|-0.346547709746205|-1.581789016723633|-0.7078366875648499|-1.017837285995483|-0.2817472219467163|0.05886098742485046|-0.1885306686162949|XArbitraryZVertical|-0.5182069229362301|0.3717888714889088|-0.7424481409720486|-0.2049520377702472|-0.9218813180923462|0.3396527767181396|-0.186469241976738|0|0|0|-1|-1|634762372.43344|0|5.150009|99.95165|3
2021-02-11 18:52:54.116 +0000|34957.39176125|-1.150955200195312|0.4036407470703125|-0.3406829833984375|34957.38677125|2.28367711000404|-1.397648106627776|-0.3315376889611076|-1.362308025360107|-0.7651469111442566|-1.072692155838013|-0.2153392434120178|0.08407902717590332|-0.1796269416809082|XArbitraryZVertical|-0.5244688393002648|0.3787892615926871|-0.7308436819158394|-0.2175287610388416|-0.9314045906066895|0.3254973590373993|-0.1629022657871246|0|0|0|-1|-1|634762372.43344|0|5.150009|99.95165|3
2021-02-11 18:52:54.136 +0000|34957.41172225|-1.13311767578125|0.459075927734375|-0.33905029296875|34957.40673225001|2.254992491765874|-1.422366425919288|-0.3140958748216175|-1.016452550888062|-0.7886580228805542|-1.087338924407959|-0.2112368941307068|0.1183351874351501|-0.1958516240119934|XArbitraryZVertical|-0.5315590214318754|0.38356202471247|-0.7197284416863519|-0.2287274612019847|-0.940618634223938|0.3089567124843597|-0.1406503617763519|0|0|0|-1|-1|634762372.43344|0|5.150009|99.95165|3
2021-02-11 18:52:54.156 +0000|34957.43168325|-1.1158447265625|0.4236297607421875|-0.3034210205078125|34957.42669325|2.235062478511363|-1.444456669691232|-0.2950991208539441|-0.6626310348510742|-0.8220129013061523|-1.070555090904236|-0.173136293888092|0.1695687174797058|-0.2066980600357056|XArbitraryZVertical|-0.5395432411997267|0.3855055584649849|-0.7097955084994683|-0.2376320565977484|-0.9491477012634277|0.2908346951007843|-0.1205571070313454|0|0|0|-1|-1|634762372.43344|0|5.150009|99.95165|3
2021-02-11 18:52:54.177 +0000|34957.45164425|-1.134429931640625|0.370147705078125|-0.2987518310546875|34957.44665425|2.220037002037548|-1.465127591587175|-0.2756617919873901|-0.5647978186607361|-0.8180476427078247|-1.02183985710144|-0.1703954339027405|0.1050591766834259|-0.201625645160675|XArbitraryZVertical|-0.5479284507174419|0.3860431941398834|-0.7004658513837345|-0.24513816195078|-0.9568781852722168|0.2721838057041168|-0.1014901325106621|0|0|0|-1|-1|634762372.43344|0|5.150009|99.95165|3
2021-02-11 18:52:54.197 +0000|34957.47160625|-1.106857299804688|0.373809814453125|-0.2562255859375|34957.46661525|2.206730952950503|-1.484534365254348|-0.2573557047005121|-0.5285808444023132|-0.7597994804382324|-0.921341598033905|-0.1600188016891479|0.1171950995922089|-0.1975813508033752|XArbitraryZVertical|-0.5558493723344807|0.3864875956124891|-0.6915317889776627|-0.2518782022231577|-0.9634706377983093|0.2545242309570312|-0.08331762999296188|0|0|0|-1|-1|634762372.43344|0|5.150009|99.95165|3
2021-02-11 18:52:54.239 +0000|34957.49156725|-1.054962158203125|0.3602447509765625|-0.218597412109375|34957.48657725001|2.195558145333233|-1.501518850275946|-0.2410949018456978|-0.4127093851566315|-0.6727481484413147|-0.7883390784263611|-0.1116660237312317|0.1291081011295319|-0.1706339716911316|XArbitraryZVertical|-0.562823139406375|0.3868076064808803|-0.6835375947188751|-0.2576556098384166|-0.9687478542327881|0.2387659996747971|-0.06721998006105423|0|0|0|-1|-1|634762372.43344|0|5.150009|99.95165|3
2021-02-11 18:52:54.241 +0000|34957.51152825|-1.02923583984375|0.356719970703125|-0.2053680419921875|34957.50653825|2.187546571614897|-1.516197837441858|-0.2263936190154965|-0.2690074741840363|-0.6227995157241821|-0.7250465750694275|-0.06249231100082397|0.1382215321063995|-0.1633585691452026|XArbitraryZVertical|-0.5692206842243366|0.3865208846335065|-0.6766106065949002|-0.2622740459560573|-0.9730302691459656|0.2244646400213242|-0.05317883566021919|0|0|0|-1|-1|634762372.43344|0|5.150009|99.95165|3
2021-02-11 18:52:54.256 +0000|34957.53148925|-1.034622192382812|0.3448333740234375|-0.182952880859375|34957.52649925|2.183302245246055|-1.528931553351363|-0.2122082657271172|-0.08805858343839645|-0.561610996723175|-0.6995274424552917|-0.05220377445220947|0.1511209309101105|-0.1521099209785461|XArbitraryZVertical|-0.575514527914468|0.3851313657944185|-0.6706672903326727|-0.2658237648478639|-0.9767116904258728|0.2106191366910934|-0.04091371968388557|0|0|0|-1|-1|634762372.43344|0|5.150009|99.95165|3
2021-02-11 18:52:54.276 +0000|34957.55145025|-1.06781005859375|0.3175201416015625|-0.180206298828125|34957.54646025|2.181886129968809|-1.539645492012745|-0.198979623335105|-0.0228150300681591|-0.4826969802379608|-0.6287367939949036|-0.0729411244392395|0.1288230717182159|-0.1512466669082642|XArbitraryZVertical|-0.5814251524142646|0.3829871623622417|-0.6657059891769143|-0.268516509605654|-0.9797931909561157|0.197669193148613|-0.0305312518030405|0|0|0|-1|-1|634762372.43344|0|5.150009|99.95165|3
2021-02-11 18:52:54.296 +0000|34957.57141325|-1.075942993164062|0.27740478515625|-0.1876373291015625|34957.56642225001|2.181215699987871|-1.548458985958985|-0.1871105578939177|-0.02406245470046997|-0.3822177648544312|-0.5625580549240112|-0.09091097116470337|0.1159659922122955|-0.165111780166626|XArbitraryZVertical|-0.5865298094752289|0.3808017386350975|-0.6615027682457274|-0.2709002485686547|-0.9823007583618164|0.1860206723213196|-0.02194563671946526|0|0|0|-1|-1|634762372.43344|0|5.150009|99.95165|3
2021-02-11 18:52:54.316 +0000|34957.59137425001|-1.067962646484375|0.2520599365234375|-0.1614837646484375|34957.58638325|2.179946682427591|-1.555164422365922|-0.1765793686117263|-0.08848122507333755|-0.2686084508895874|-0.4894684851169586|-0.09260469675064087|0.08613184094429016|-0.1606066226959229|XArbitraryZVertical|-0.590527701861013|0.3789233809057228|-0.6579620053997697|-0.2734598293896511|-0.9843302369117737|0.1756631731987|-0.01538820937275887|0|0|0|-1|-1|634762372.43344|0|5.150009|99.95165|3
2021-02-11 18:52:54.336 +0000|34957.61133525|-1.047317504882812|0.234771728515625|-0.116363525390625|34957.60634525|2.177368972057209|-1.56005182036163|-0.1675634008491065|-0.1474694013595581|-0.1781045496463776|-0.415799617767334|-0.06807887554168701|0.07649046182632446|-0.1305499076843262|XArbitraryZVertical|-0.5933658305537761|0.3776507415901807|-0.6549445824924215|-0.2763052938464873|-0.9859372973442078|0.1667803674936295|-0.01059381663799286|0|0|0|-1|-1|634762372.43344|0|5.150009|99.95165|3
2021-02-11 18:52:54.356 +0000|34957.63129625|-1.024185180664062|0.22186279296875|-0.0688629150390625|34957.62630625|2.174051986393843|-1.563376472873276|-0.1601928628138208|-0.1646418124437332|-0.107551597058773|-0.32632976770401|-0.04893296957015991|0.0675726979970932|-0.08364808559417725|XArbitraryZVertical|-0.5952263877737906|0.3768861277715829|-0.6524852374617798|-0.2791514899996876|-0.9871695041656494|0.1595086008310318|-0.00732478778809309|0|0|0|-1|-1|634762372.43344|0|5.150009|99.95165|3
2021-02-11 18:52:54.376 +0000|34957.65125725|-1.015792846679688|0.2332763671875|-0.046844482421875|34957.64626725001|2.170957576160565|-1.565559924136878|-0.1543953978909477|-0.1165590360760689|-0.06645327061414719|-0.2524259388446808|-0.02983790636062622|0.07027731835842133|-0.05459451675415039|XArbitraryZVertical|-0.5964518603411594|0.376374989998207|-0.6505950087814277|-0.2816259659228002|-0.9880911707878113|0.1537827104330063|-0.005174090620130301|0|0|0|-1|-1|634762372.43344|0|5.150009|99.95165|3
2021-02-11 18:52:54.396 +0000|34957.67121925001|-1.002212524414062|0.20367431640625|-0.0322113037109375|34957.66622825|2.169526394347443|-1.566868448314016|-0.1500230837090676|-0.03099151700735092|-0.04132911562919617|-0.1864908039569855|-0.01897621154785156|0.07777291536331177|-0.03079938888549805|XArbitraryZVertical|-0.5974329032835445|0.3756754601484417|-0.6493886848084853|-0.2832601177164529|-0.9887601137161255|0.149460956454277|-0.003883749479427934|0|0|0|-1|-1|634762372.43344|0|5.150009|99.95165|3
2021-02-11 18:52:54.416 +0000|34957.69118025|-0.9865570068359375|0.153564453125|-0.0277557373046875|34957.68618925|2.169117780430123|-1.567608842951408|-0.1469576635523837|-0.02305153571069241|-0.02188947983086109|-0.1177119985222816|-0.004665076732635498|0.02259229123592377|-0.02727282047271729|XArbitraryZVertical|-0.5981733106888196|0.3749828392930492|-0.6486765295872479|-0.2842452650243251|-0.989216148853302|0.1464292705059052|-0.003153121331706643|0|0|0|-1|-1|634762372.43344|0|5.150009|99.95165|3
2021-02-11 18:52:54.436 +0000|34957.71114125|-0.986297607421875|0.1364288330078125|-0.0397491455078125|34957.70615125|2.168465467146708|-1.568111483151645|-0.1451890443905335|-0.04676249250769615|-0.010322998277843|-0.05567845702171326|0.006030857563018799|0.00133185088634491|-0.03459000587463379|XArbitraryZVertical|-0.5985462114798746|0.3747187430800241|-0.6481827124235164|-0.2849345032686358|-0.9894751906394958|0.1446794867515564|-0.002656592521816492|0|0|0|-1|-1|634762372.43344|0|5.150009|99.95165|3
2021-02-11 18:52:54.456 +0000|34957.73110225|-0.9835357666015625|0.1655426025390625|-0.028167724609375|34957.72611225|2.167822176755489|-1.56703955028734|-0.1459313312164391|-0.02763881534337997|0.006495875772088766|-0.01604493893682957|0.007247209548950195|-0.00610119104385376|-0.03475046157836914|XArbitraryZVertical|-0.5979387091967108|0.3749811750216667|-0.6485169377252368|-0.2851039385506872|-0.989363968372345|0.1454139202833176|-0.003716836916282773|0|0|0|-1|-1|634762372.43344|0|5.150009|99.95165|3
2021-02-11 18:52:54.476 +0000|34957.75106325001|-0.984405517578125|0.187591552734375|-0.0247955322265625|34957.74607325|2.168362536207084|-1.565981924446336|-0.1474182676632306|0.08739153295755386|0.01860947720706463|0.006935122888535261|0.003363370895385742|0.03672409057617188|-0.02380216121673584|XArbitraryZVertical|-0.5974171871644935|0.3751154778824368|-0.6491205857945112|-0.284646533258863|-0.9891422390937805|0.1468848884105682|-0.004762165248394012|0|0|0|-1|-1|634762372.43344|0|5.150009|99.95165|3
2021-02-11 18:52:54.496 +0000|34957.77102425|-0.9770965576171875|0.1483001708984375|-0.01275634765625|34957.76603425|2.171120636275144|-1.564748896351453|-0.1485261069773321|0.1556127369403839|0.006617316044867039|0.03568900376558304|0.01192140579223633|0.02265837788581848|-0.01425230503082275|XArbitraryZVertical|-0.5973251118138682|0.3744493342763022|-0.6500369485842891|-0.2836237508784202|-0.9889722466468811|0.1479806303977966|-0.005980813875794411|0|0|0|-1|-1|634762372.43344|0|5.150009|99.95165|3
2021-02-11 18:52:54.516 +0000|34957.79098625|-0.9770660400390625|0.1012725830078125|-0.0172576904296875|34957.78599525|2.174016908610595|-1.563727283039426|-0.1497807012235874|0.1136926412582397|0.001586551312357187|0.08628454059362411|0.006555616855621338|-0.02281752228736877|-0.007704257965087891|XArbitraryZVertical|-0.5972987847189167|0.3738171236232041|-0.6509279590362622|-0.2824672933413907|-0.9887791872024536|0.1492212861776352|-0.006989839486777782|0|0|0|-1|-1|634762372.43344|0|5.150009|99.95165|3
2021-02-11 18:52:54.536 +0000|34957.81094725|-0.97357177734375|0.0878143310546875|-0.02435302734375|34957.80595725|2.175706822886587|-1.562906411211404|-0.1515000175587458|0.03660786896944046|-0.007322627585381269|0.1018209755420685|0.01680481433868408|-0.06792861223220825|-0.01582109928131104|XArbitraryZVertical|-0.5970241746526096|0.3737143343007023|-0.6516513269956272|-0.2815143508637605|-0.9885150790214539|0.1509211361408234|-0.007799462415277958|0|0|0|-1|-1|634762372.43344|0|5.150009|99.95165|3
2021-02-11 18:52:54.556 +0000|34957.83090825001|-0.9788360595703125|0.1014404296875|-0.0117645263671875|34957.82591825|2.175897376652229|-1.562656748210424|-0.1540354899803164|-0.008288951590657234|-0.009392330422997475|0.1080368906259537|0.009459018707275391|-0.06190492212772369|-0.01148807909339666|XArbitraryZVertical|-0.5965014191075079|0.3743854949229474|-0.6521050905043222|-0.2806785388640787|-0.9881271719932556|0.1534270793199539|-0.008043115958571434|0|0|0|-1|-1|634762372.43344|0|5.150009|99.95165|3
2021-02-11 18:52:54.576 +0000|34957.85086925|-0.9737701416015625|0.140869140625|0.000640869140625|34957.84587925|2.176005176217504|-1.562495488491451|-0.1567689642911673|0.03051217459142208|-0.00526874465867877|0.1053766533732414|0.008668482303619385|-0.02822846174240112|0.007939577102661133|XArbitraryZVertical|-0.5959536512130549|0.3751529955803947|-0.6525471401216417|-0.2797888846877634|-0.9877029657363892|0.1561276167631149|-0.008198951371014118|0|0|0|-1|-1|634762372.43344|0|5.150009|99.95165|3
2021-02-11 18:52:54.596 +0000|34957.87083025|-0.9806671142578125|0.1101837158203125|0.00042724609375|34957.86584025|2.177269516954867|-1.562248022069675|-0.1584835663518399|0.08313486725091934|-0.005469280760735273|0.1022137925028801|0.01070135831832886|-0.03510983288288116|0.00909727904945612|XArbitraryZVertical|-0.5957864090578108|0.3752572694319714|-0.6530341837924579|-0.2788672961686787|-0.9874317646026611|0.1578209549188614|-0.008441072888672352|0|0|0|-1|-1|634762372.43344|0|5.150009|99.95165|3
2021-02-11 18:52:54.615 +0000|34957.89079225|-0.9839324951171875|0.096588134765625|0.0035552978515625|34957.88580125|2.179282741177778|-1.561595284442244|-0.1591245288173393|0.104913741350174|0.01078681461513042|0.08692733943462372|0.00449073314666748|-0.04892630875110626|0.01090049836784601|XArbitraryZVertical|-0.5958297195117923|0.3747594022273394|-0.6535971108938968|-0.2781243177926488|-0.987324595451355|0.1584538519382477|-0.00908467173576355|0|0|0|-1|-1|634762372.43344|0|5.150009|99.95165|3
2021-02-11 18:52:54.635 +0000|34957.91075325001|-0.9772491455078125|0.0861663818359375|0.00335693359375|34957.90576225|2.181587741124453|-1.560582774761676|-0.1592617406725731|0.11102394759655|0.02205038629472256|0.05967023968696594|0.003757357597351074|-0.06462575495243073|0.01637083292007446|XArbitraryZVertical|-0.5959042561993123|0.3739733375111222|-0.6542377816749616|-0.2775157556965243|-0.9872931241989136|0.1585893332958221|-0.01008412055671215|0|0|0|-1|-1|634762372.43344|0|5.150009|99.95165|3
2021-02-11 18:52:54.655 +0000|34957.93071425|-0.992828369140625|0.079071044921875|0.014862060546875|34957.92572425|2.183478334130037|-1.559989682917382|-0.159367242685014|0.07567627727985382|0.01628219336271286|0.04108643531799316|0.005290865898132324|-0.07390044629573822|0.01974856853485107|XArbitraryZVertical|-0.5960435405738125|0.3733595466804304|-0.6546910062893397|-0.2769737046837703|-0.9872702360153198|0.1586934924125671|-0.01066949311643839|0|0|0|-1|-1|634762372.43344|0|5.150009|99.95165|3
2021-02-11 18:52:54.676 +0000|34957.95067525|-0.9964752197265625|0.09893798828125|0.011688232421875|34957.94568525|2.184583990256058|-1.559661158455125|-0.159671145036875|0.04216530174016953|0.01820579543709755|0.0383775569498539|-0.008142948150634766|-0.07131657004356384|0.0256112813949585|XArbitraryZVertical|-0.5960851300831388|0.3730762238722702|-0.6549833631138582|-0.276574502168777|-0.98721843957901|0.1589935421943665|-0.01099329814314842|0|0|0|-1|-1|634762372.43344|0|5.150009|99.95165|3
2021-02-11 18:52:54.696 +0000|34957.97063625|-0.9959716796875|0.105072021484375|0.018829345703125|34957.96564625|2.185373570112573|-1.559324869261554|-0.1596043732938041|0.03633760660886765|0.02447998896241188|0.04721507802605629|-0.00937199592590332|-0.06037111580371857|0.02658426761627197|XArbitraryZVertical|-0.5961347369906596|0.372774287663206|-0.6551837403276761|-0.2764003362428852|-0.9872254729270935|0.1589276194572449|-0.0113254114985466|0|0|0|-1|-1|634762372.43344|0|5.150009|99.95165|3
2021-02-11 18:52:54.738 +0000|34957.99059825|-0.9978179931640625|0.1031341552734375|0.0142974853515625|34957.98560725|2.186180074536285|-1.558927457507297|-0.1592870347771987|0.04793046414852142|0.03197875991463661|0.04569911956787109|-0.01117247343063354|-0.05390852689743042|0.02934235334396362|XArbitraryZVertical|-0.5962144110143249|0.3723831424299099|-0.6553704457153898|-0.2763129324904023|-0.9872711896896362|0.158614307641983|-0.01171834301203489|0|0|0|-1|-1|634762372.43344|0|5.150009|99.95165|3
2021-02-11 18:52:54.740 +0000|34958.01055925|-1.000244140625|0.09210205078125|0.0283966064453125|34958.00556825|2.18703738314561|-1.558480389578252|-0.1585476451044358|0.0387505441904068|0.03184523060917854|0.03042420372366905|-0.008207440376281738|-0.05859534442424774|0.0333709716796875|XArbitraryZVertical|-0.596366212423607|0.3718423877985038|-0.655521654321968|-0.2763547236699436|-0.987382709980011|0.1578842401504517|-0.01216115895658731|0|0|0|-1|-1|634762372.43344|0|5.150009|99.95165|3
2021-02-11 18:52:54.755 +0000|34958.03052025|-0.993804931640625|0.0968780517578125|0.03338623046875|34958.02553025|2.187551794871393|-1.558313908434939|-0.1577002606678181|0.02234595641493797|0.02783493511378765|0.03492441028356552|-0.01164662837982178|-0.06332796812057495|0.04112064838409424|XArbitraryZVertical|-0.5965661171267984|0.3714098346186744|-0.6555272721438152|-0.2764916746844483|-0.9875141978263855|0.1570474207401276|-0.01232720538973808|0|0|0|-1|-1|634762372.43344|0|5.150009|99.95165|3
2021-02-11 18:52:54.775 +0000|34958.05048125|-0.9833526611328125|0.112945556640625|0.0247650146484375|34958.04549125|2.187877895887771|-1.558303129718799|-0.1572838817695923|0.02676946669816971|0.01761814206838608|0.0413619838654995|0.002166748046875|-0.05016040802001953|0.04261219501495361|XArbitraryZVertical|-0.5967011307482287|0.3711851662621551|-0.6555189976498473|-0.2765217317644926|-0.9875794053077698|0.1566361933946609|-0.0123386662453413|0|0|0|-1|-1|634762372.43344|0|5.150009|99.95165|3
2021-02-11 18:52:54.795 +0000|34958.07044225001|-0.9858856201171875|0.1058197021484375|0.0117340087890625|34958.06545225|2.188496262224664|-1.558566132280344|-0.1570115787235561|0.04109501093626022|0.006840914487838745|0.03446803614497185|0.002090513706207275|-0.04860973358154297|0.02713990211486816|XArbitraryZVertical|-0.5969530387964294|0.3709546387432809|-0.6554889847310702|-0.2763585148575817|-0.9876252412796021|0.1563672423362732|-0.01207945123314857|0|0|0|-1|-1|634762372.43344|0|5.150009|99.95165|3
2021-02-11 18:52:54.815 +0000|34958.09040325|-0.9849090576171875|0.1168060302734375|0.008392333984375|34958.08541325|2.189208231671155|-1.558944097815313|-0.1565229339714212|0.03959648311138153|0.002340971957892179|0.03059908375144005|0.0002638697624206543|-0.04591453075408936|0.01875674724578857|XArbitraryZVertical|-0.5973003218948294|0.3706464528589429|-0.6554080398013458|-0.2762134240975901|-0.9877059459686279|0.1558845937252045|-0.0117070646956563|0|0|0|-1|-1|634762372.43344|0|5.150009|99.95165|3
2021-02-11 18:52:54.835 +0000|34958.11036525|-0.9708099365234375|0.115478515625|0.018280029296875|34958.10537425|2.189923229209312|-1.55969333831067|-0.1558314898392115|0.0387892946600914|-0.01064225845038891|0.02127535827457905|0.00935208797454834|-0.03776997327804565|0.02126801013946533|XArbitraryZVertical|-0.59780742345719|0.3703271134138232|-0.6551889372675792|-0.2760645614528195|-0.9878219962120056|0.1552015691995621|-0.01096822693943977|0|0|0|-1|-1|634762372.43344|0|5.150009|99.95165|3
2021-02-11 18:52:54.855 +0000|34958.13032625|-0.9800872802734375|0.117156982421875|0.019500732421875|34958.12533625|2.190559804613961|-1.56093865929265|-0.1550837930173083|0.03983981162309647|-0.0369732528924942|0.01259762514382601|0.01891070604324341|-0.03634464740753174|0.02821767516434193|XArbitraryZVertical|-0.5984725942731305|0.3700823589532025|-0.6548025425129969|-0.2758679805114517|-0.9879505038261414|0.1544628888368607|-0.009739203378558159|0|0|0|-1|-1|634762372.43344|0|5.150009|99.95165|3
2021-02-11 18:52:54.875 +0000|34958.15028725|-0.9962615966796875|0.1145477294921875|0.01873779296875|34958.14529725|2.191336398271522|-1.562167049872454|-0.1543943739430453|0.04616799578070641|-0.0342586375772953|0.00986894965171814|-0.005294382572174072|-0.03786072134971619|0.02961426973342896|XArbitraryZVertical|-0.599146690027875|0.3698107373234554|-0.6544480166196851|-0.2756103865219633|-0.9880681037902832|0.1537817120552063|-0.008526524528861046|0|0|0|-1|-1|634762372.43344|0|5.150009|99.95165|3
2021-02-11 18:52:54.895 +0000|34958.17024825|-0.9832000732421875|0.1158447265625|0.021392822265625|34958.16525825|2.192238494442648|-1.562945424725509|-0.1536498925680036|0.04890576004981995|-0.0251512136310339|0.008633065968751907|-0.003068029880523682|-0.03807109594345093|0.02728962898254395|XArbitraryZVertical|-0.5997064753796499|0.3694224913627522|-0.6542376356122864|-0.2754131986724493|-0.9881887435913086|0.153046041727066|-0.007758332416415215|0|0|0|-1|-1|634762372.43344|0|5.150009|99.95165|3
2021-02-11 18:52:54.915 +0000|34958.19020925|-0.974609375|0.1136627197265625|0.0270843505859375|34958.18521925|2.19317359057479|-1.563713835825369|-0.1529939214986986|0.04435601457953453|-0.03146348893642426|-0.003890271997079253|0.01052653789520264|-0.03565283119678497|0.03051352500915527|XArbitraryZVertical|-0.6002522290071421|0.3690493323080306|-0.6540463893309379|-0.2751784910642299|-0.9882944822311401|0.1523977667093277|-0.006999703589826822|0|0|0|-1|-1|634762372.43344|0|5.150009|99.95165|3
2021-02-11 18:52:54.935 +0000|34958.21017125|-0.990570068359375|0.1277923583984375|0.0206146240234375|34958.20518025|2.193881048910782|-1.564969879646491|-0.1522553675767266|0.02552115917205811|-0.05580254644155502|-0.003273661015555263|0.01093673706054688|-0.03281712532043457|0.02806746959686279|XArbitraryZVertical|-0.6009302446593868|0.3687863001534634|-0.6536658192498394|-0.2749555445342988|-0.9884148240089417|0.1516677886247635|-0.005759011954069138|0|0|0|-1|-1|634762372.43344|0|5.150009|99.95165|3
2021-02-11 18:52:54.955 +0000|34958.23013225|-1.0042724609375|0.134918212890625|0.020660400390625|34958.22514125|2.19419264304018|-1.566537207024588|-0.1515890731915573|0.01621644198894501|-0.05068187043070793|0.01397936139255762|-0.01230055093765259|-0.016548752784729|0.02448928356170654|XArbitraryZVertical|-0.6016230411390526|0.3687066362498389|-0.6531465288162206|-0.2747814859803279|-0.988523542881012|0.1510091722011566|-0.004210265353322029|0|0|0|-1|-1|634762372.43344|0|5.150009|99.95165|3
2021-02-11 18:52:54.975 +0000|34958.25009325|-0.9966583251953125|0.148651123046875|0.0193023681640625|34958.24510325|2.194719152630848|-1.567892865823922|-0.1510623918754231|0.0457993671298027|-0.04699259623885155|0.006976046599447727|-0.01044631004333496|-0.008490234613418579|0.02299684286117554|XArbitraryZVertical|-0.6022600128486176|0.3685752039721196|-0.6527388237864604|-0.2745310770085527|-0.9886077046394348|0.1504885107278824|-0.002870391821488738|0|0|0|-1|-1|634762372.43344|0|5.150009|99.95165|3
2021-02-11 18:52:54.995 +0000|34958.27005425|-1.009918212890625|0.1365814208984375|0.0170135498046875|34958.26506425|2.195893288683504|-1.569160900684007|-0.150475180098921|0.07043742388486862|-0.04543230310082436|0.001411016564816236|-0.01342231035232544|-0.008870989084243774|0.0206141471862793|XArbitraryZVertical|-0.6029983829573535|0.3682179756135807|-0.6524375007828587|-0.2741056037006068|-0.9886987209320068|0.1499079614877701|-0.001616945140995085|0|0|0|-1|-1|634762374.9863338|0|4.990005|99.95201|3
2021-02-11 18:52:55.015 +0000|34958.29001525|-1.011856079101562|0.1192169189453125|0.0236358642578125|34958.28502525|2.197399773181981|-1.570141127859809|-0.1498840559887362|0.07569240033626556|-0.02401643991470337|0.000960587291046977|-0.0309719443321228|-0.01873880624771118|0.0222543478012085|XArbitraryZVertical|-0.6037041418603033|0.3677191626291423|-0.6522672169713543|-0.2736264317052965|-0.9887881875038147|0.1493234932422638|-0.0006478530704043806|0|0|0|-1|-1|634762374.9863338|0|4.990005|99.95201|3
2021-02-11 18:52:55.035 +0000|34958.30997725|-1.000137329101562|0.11737060546875|0.0294342041015625|34958.30498625|2.198425273218064|-1.570923551156555|-0.1495505480091543|0.02693977579474449|-0.02935607731342316|0.003807240165770054|-0.01366430521011353|-0.03789453208446503|0.02540218830108643|XArbitraryZVertical|-0.6042090717449823|0.3674157043047855|-0.6521255433376559|-0.2732569194816318|-0.9888380765914917|0.1489937156438828|0.0001258042902918532|0|0|0|-1|-1|634762374.9863338|0|4.990005|99.95201|3
2021-02-11 18:52:55.055 +0000|34958.32993825|-1.00244140625|0.1257781982421875|0.0355987548828125|34958.32494725|2.19859623500977|-1.572037868153035|-0.149538443737342|0.003021094482392073|-0.04184406623244286|0.01608414575457573|-0.01114553213119507|-0.02764390408992767|0.03376078605651855|XArbitraryZVertical|-0.6046059407592845|0.3675125836325234|-0.6518105335292402|-0.2730004628544895|-0.9888392686843872|0.1489817500114441|0.001227685483172536|0|0|0|-1|-1|634762374.9863338|0|4.990005|99.95201|3
2021-02-11 18:52:55.075 +0000|34958.34989925|-1.009765625|0.1227264404296875|0.037811279296875|34958.34490925|2.198555004751416|-1.573190439775628|-0.1498344302231731|-0.001918187481351197|-0.04260146617889404|0.02615142799913883|-0.0170358419418335|-0.02354203164577484|0.02970671653747559|XArbitraryZVertical|-0.6049195754673913|0.3677716010304184|-0.6514968384337241|-0.2727053845131334|-0.9887929558753967|0.1492744237184525|0.002367286710068583|0|0|0|-1|-1|634762374.9863338|0|4.990005|99.95201|3
2021-02-11 18:52:55.095 +0000|34958.36986025|-1.014663696289062|0.1397552490234375|0.0315704345703125|34958.36487025|2.198572975506901|-1.574383281281041|-0.1500021441863563|0.01867229305207729|-0.04288504272699356|0.03101995214819908|-0.02202355861663818|-0.02096128463745117|0.03261673450469971|XArbitraryZVertical|-0.6052805604217204|0.3679793164062952|-0.6511613630184477|-0.2724253804342852|-0.9887644648551941|0.1494402587413788|0.003546668216586113|0|0|0|-1|-1|634762374.9863338|0|4.990005|99.95201|3
2021-02-11 18:52:55.115 +0000|34958.38982125|-1.0113525390625|0.132080078125|0.0300140380859375|34958.38483125|2.199181004230186|-1.575409021194536|-0.1499605567836498|0.0455024391412735|-0.03102460131049156|0.03311017900705338|-0.02727049589157104|-0.008880972862243652|0.02258455753326416|XArbitraryZVertical|-0.6057339473328327|0.3679223289383454|-0.6509279038476807|-0.2720523508007025|-0.9887665510177612|0.1493991315364838|0.004560910165309906|0|0|0|-1|-1|634762374.9863338|0|4.990005|99.95201|3
2021-02-11 18:52:55.135 +0000|34958.40978325|-1.013900756835938|0.1279296875|0.0252532958984375|34958.40479225|2.199958025987152|-1.576474277092118|-0.1500503045473965|0.03875404223799706|-0.03032957017421722|0.03724855184555054|-0.02300161123275757|-0.01943725347518921|0.02530026435852051|XArbitraryZVertical|-0.606207074199462|0.3678587277513189|-0.6507230475947775|-0.2715742250963585|-0.9887477159500122|0.1494878679513931|0.005614120978862047|0|0|0|-1|-1|634762374.9863338|0|4.990005|99.95201|3
2021-02-11 18:52:55.155 +0000|34958.42974425|-0.99871826171875|0.1228179931640625|0.0252227783203125|34958.42475325|2.200527114660468|-1.577499967583422|-0.1503878835399192|0.02668274752795696|-0.02534162998199463|0.0447324812412262|-0.02089160680770874|-0.02596607804298401|0.01923584938049316|XArbitraryZVertical|-0.6065836050356089|0.3679270232380772|-0.650535486636487|-0.2710900181273285|-0.9886910319328308|0.1498216539621353|0.006627928465604782|0|0|0|-1|-1|634762374.9863338|0|4.990005|99.95201|3
2021-02-11 18:52:55.175 +0000|34958.44970525|-0.9908447265625|0.1320648193359375|0.02410888671875|34958.44471525|2.200755194601293|-1.578649150453572|-0.1505575414733077|0.008763468824326992|-0.03454205021262169|0.02887539751827717|-0.005132555961608887|-0.02076271176338196|0.01167583465576172|XArbitraryZVertical|-0.6069682483980261|0.368064533044413|-0.6502408807606251|-0.2707487772651803|-0.9886571764945984|0.1499893963336945|0.007763910107314587|0|0|0|-1|-1|634762374.9863338|0|4.990005|99.95201|3
2021-02-11 18:52:55.195 +0000|34958.46966625|-0.98345947265625|0.1422119140625|0.028961181640625|34958.46467625001|2.200917872782152|-1.579760411413235|-0.15081022574369|0.02217351645231247|-0.04142781347036362|0.02356798388063908|0.001869857311248779|-0.0121166855096817|0.01723039150238037|XArbitraryZVertical|-0.6073131902502966|0.3682414960109214|-0.6499601015407969|-0.2704085424398742|-0.9886099696159363|0.1502392143011093|0.00886222068220377|0|0|0|-1|-1|634762374.9863338|0|4.990005|99.95201|3
2021-02-11 18:52:55.226 +0000|34958.48962725|-0.97509765625|0.1401214599609375|0.0369720458984375|34958.48463725|2.201808907120393|-1.58083825078831|-0.1508377431843789|0.07333144545555115|-0.03506791964173317|0.02433346584439278|0.007714986801147461|-0.006147176027297974|0.02425193786621094|XArbitraryZVertical|-0.6078224051637915|0.368124696879387|-0.6497568256863981|-0.2699116140219552|-0.9885957837104797|0.1502664089202881|0.009927737526595592|0|0|0|-1|-1|634762374.9863338|0|4.990005|99.95201|3
2021-02-11 18:52:55.234 +0000|34958.50958925|-0.9624481201171875|0.1178436279296875|0.038116455078125|34958.50459825|2.203556930408305|-1.581676247516834|-0.1507279697828365|0.095810666680336|-0.04784411564469337|0.01660452783107758|0.02250856161117554|-0.02245710790157318|0.02871823310852051|XArbitraryZVertical|-0.6084362361228409|0.367673119675555|-0.6497225993533939|-0.2692255673851074|-0.9886035323143005|0.1501578837633133|0.0107563529163599|0|0|0|-1|-1|634762374.9863338|0|4.990005|99.95201|3
2021-02-11 18:52:55.254 +0000|34958.52955025|-0.971343994140625|0.119903564453125|0.032501220703125|34958.52455925|2.205303086834679|-1.582721047169363|-0.1505622771030365|0.08132543414831161|-0.06154954060912132|0.02118720673024654|0.02255213260650635|-0.03387473523616791|0.02330577187240124|XArbitraryZVertical|-0.6091266417368874|0.3672322174403083|-0.6496166396061828|-0.2685207176342621|-0.9886165261268616|0.1499940752983093|0.01178953424096107|0|0|0|-1|-1|634762374.9863338|0|4.990005|99.95201|3
2021-02-11 18:52:55.274 +0000|34958.54951125|-0.9840545654296875|0.11834716796875|0.02685546875|34958.54452125001|2.206614491576588|-1.584126721471114|-0.150748669784225|0.05606253817677498|-0.07052945345640182|0.03082314506173134|0.009078919887542725|-0.02879472076892853|0.01817798800766468|XArbitraryZVertical|-0.6097899376724257|0.3670771650442785|-0.6493896881387246|-0.2677757353253011|-0.9885712862014771|0.1501783579587936|0.01317882630974054|0|0|0|-1|-1|634762374.9863338|0|4.990005|99.95201|3
2021-02-11 18:52:55.294 +0000|34958.56947175|-0.9813232421875|0.1291656494140625|0.02252197265625|34958.56448225|2.207460477485229|-1.585757160091134|-0.1511945344014851|0.02503862977027893|-0.07533411681652069|0.02644632756710052|0.008561789989471436|-0.02668729424476624|0.01264584064483643|XArbitraryZVertical|-0.6103935208214567|0.3671710139687972|-0.6490661373070776|-0.2670550929620039|-0.9884812831878662|0.1506191492080688|0.01478960737586021|0|0|0|-1|-1|634762374.9863338|0|4.990005|99.95201|3
2021-02-11 18:52:55.314 +0000|34958.58943275|-0.9833526611328125|0.1434173583984375|0.032958984375|34958.58444275001|2.207926025090809|-1.587644039111814|-0.1515581285172752|0.03884517028927803|-0.07122480869293213|0.04088288173079491|0.003930151462554932|-0.02124838531017303|0.009270908311009407|XArbitraryZVertical|-0.6110251529986119|0.3673896613446895|-0.6486016313790264|-0.2664378732515932|-0.9883968830108643|0.1509785801172256|0.01665380224585533|0|0|0|-1|-1|634762374.9863338|0|4.990005|99.95201|3
2021-02-11 18:52:55.334 +0000|34958.60939475|-0.98284912109375|0.1348724365234375|0.0383148193359375|34958.60440375|2.208978691854947|-1.589219298118213|-0.1518198232595326|0.07039695978164673|-0.06748503446578979|0.03749915584921837|0.004992365837097168|-0.01070383191108704|0.01961660385131836|XArbitraryZVertical|-0.6116818136973725|0.3673559235423463|-0.6482957771216645|-0.2657209254483426|-0.9883297681808472|0.151237279176712|0.0182100310921669|0|0|0|-1|-1|634762374.9863338|0|4.990005|99.95201|3
2021-02-11 18:52:55.354 +0000|34958.62935575|-0.9913787841796875|0.12408447265625|0.041351318359375|34958.62436575|2.210673218706183|-1.59057319672753|-0.15192799525306|0.09688323736190796|-0.06306258589029312|0.02871578559279442|0.001059472560882568|-0.02082058787345886|0.01927065476775169|XArbitraryZVertical|-0.6124121737448266|0.367049346140583|-0.6481208858818012|-0.2648873660429553|-0.9882876873016357|0.1513441950082779|0.01954778656363487|0|0|0|-1|-1|634762374.9863338|0|4.990005|99.95201|3
2021-02-11 18:52:55.374 +0000|34958.64931675|-0.9904937744140625|0.1212310791015625|0.035675048828125|34958.64432675|2.212566817202287|-1.59154242510621|-0.1520066719879446|0.09309399873018265|-0.05247471109032631|0.03306730091571808|-0.005670487880706787|-0.02999256551265717|0.02270746044814587|XArbitraryZVertical|-0.6130593454823349|0.3666209797709724|-0.648085085592769|-0.2640700374302391|-0.9882564544677734|0.1514219641685486|0.02050540782511234|0|0|0|-1|-1|634762374.9863338|0|4.990005|99.95201|3
2021-02-11 18:52:55.394 +0000|34958.66927775|-0.98748779296875|0.1361083984375|0.035736083984375|34958.66428775001|2.21433171521082|-1.592424944414838|-0.1523146569013812|0.09202338755130768|-0.05670242756605148|0.03356131911277771|0.0004289150238037109|-0.02391882240772247|0.01019394211471081|XArbitraryZVertical|-0.6136131391622734|0.3662883948616013|-0.6480888923010829|-0.263234653601342|-0.9881913065910339|0.1517263948917389|0.02137654460966587|0|0|0|-1|-1|634762374.9863338|0|4.990005|99.95201|3
2021-02-11 18:52:55.414 +0000|34958.68923875|-0.9893035888671875|0.117218017578125|0.0372314453125|34958.68424875|2.216226324523599|-1.593473395438602|-0.1528573707164964|0.09928098320960999|-0.05021560564637184|0.02735588699579239|-0.001766979694366455|-0.02089990675449371|0.01277613826096058|XArbitraryZVertical|-0.6142019560591305|0.3660072761717816|-0.6480895460704934|-0.2622493885466272|-0.9880861043930054|0.152262806892395|0.02241073735058308|0|0|0|-1|-1|634762374.9863338|0|4.990005|99.95201|3
2021-02-11 18:52:55.434 +0000|34958.70920075|-1.001358032226562|0.116790771484375|0.0345916748046875|34958.70420975|2.217938910017843|-1.59445712967182|-0.1528589088609376|0.07440107315778732|-0.04128900915384293|0.01190032064914703|-0.006977736949920654|-0.03400875627994537|0.01281118206679821|XArbitraryZVertical|-0.6148336985691177|0.3656102963183127|-0.6480116505036931|-0.2615139179517498|-0.9880631566047668|0.1522643268108368|0.02338273078203201|0|0|0|-1|-1|634762374.9863338|0|4.990005|99.95201|3
2021-02-11 18:52:55.454 +0000|34958.72916175|-0.9956512451171875|0.1255645751953125|0.036468505859375|34958.72417175|2.219252163452995|-1.595348936479223|-0.1525691262135|0.05867435038089752|-0.03623198717832565|0.01077362615615129|-0.00939631462097168|-0.03048746287822723|0.006145957857370377|XArbitraryZVertical|-0.6154145610876954|0.3652360918615924|-0.6478698791695089|-0.2610216198323038|-0.9880861639976501|0.1519779115915298|0.02426496893167496|0|0|0|-1|-1|634762374.9863338|0|4.990005|99.95201|3
2021-02-11 18:52:55.474 +0000|34958.74912275|-1.007171630859375|0.1310882568359375|0.0421600341796875|34958.74413275001|2.220248971645328|-1.596163167598228|-0.1522235861161915|0.04010871052742004|-0.04414386302232742|0.00479935621842742|-0.01113390922546387|-0.02604129910469055|0.01402223110198975|XArbitraryZVertical|-0.6159221743928625|0.3649318928559869|-0.6477026146091743|-0.2606646722565771|-0.9881185293197632|0.1516363769769669|0.02507082186639309|0|0|0|-1|-1|634762374.9863338|0|4.990005|99.95201|3
2021-02-11 18:52:55.494 +0000|34958.76908375|-1.02032470703125|0.13482666015625|0.04644775390625|34958.76409375|2.221161222078211|-1.597159766465611|-0.151860054788698|0.05441755428910255|-0.04746493697166443|-0.007477017119526863|-0.02720236778259277|-0.01493978500366211|0.01662182807922363|XArbitraryZVertical|-0.6164763267986438|0.3646716984620336|-0.6474653139522724|-0.2603080574536075|-0.988148033618927|0.1512770354747772|0.02605701796710491|0|0|0|-1|-1|634762374.9863338|0|4.990005|99.95201|3
2021-02-11 18:52:55.514 +0000|34958.78904575|-1.021209716796875|0.12774658203125|0.0485382080078125|34958.78405475|2.222259366348339|-1.598114779396585|-0.1510221985101502|0.05264800041913986|-0.0472276471555233|-0.006667061243206263|-0.03332698345184326|-0.02413655817508698|0.02318215183913708|XArbitraryZVertical|-0.6171352416078282|0.3642062174958177|-0.6472005428122185|-0.260056570367264|-0.9882489442825317|0.1504487693309784|0.02700415067374706|0|0|0|-1|-1|634762374.9863338|0|4.990005|99.95201|3
2021-02-11 18:52:55.534 +0000|34958.80900675|-1.024398803710938|0.14349365234375|0.0497283935546875|34958.80401575|2.223817598258496|-1.598849398604106|-0.1503341190190146|0.1104914322495461|-0.03620876371860504|-0.006773498840630054|-0.03728741407394409|-0.01320239901542664|0.02043902315199375|XArbitraryZVertical|-0.6177791633664222|0.3636143798549463|-0.6470833127423159|-0.2596470734442214|-0.9883319735527039|0.1497684866189957|0.02773302420973778|0|0|0|-1|-1|634762374.9863338|0|4.990005|99.95201|3
2021-02-11 18:52:55.554 +0000|34958.82896775|-1.034088134765625|0.12738037109375|0.0422515869140625|34958.82397775001|2.226493755863404|-1.599276218956611|-0.1496591950510855|0.152082696557045|-0.03284092992544174|-0.01845900528132915|-0.03603887557983398|-0.006996095180511475|0.01534509100019932|XArbitraryZVertical|-0.6185231891735958|0.3626402220139407|-0.6472073911333223|-0.2589278170171061|-0.988420844078064|0.1491011530160904|0.02815773151814938|0|0|0|-1|-1|634762374.9863338|0|4.990005|99.95201|3
2021-02-11 18:52:55.574 +0000|34958.84892875001|-1.065567016601562|0.1338348388671875|0.0334320068359375|34958.84393875|2.229619750312175|-1.599702744804849|-0.1489779469119072|0.1560959070920944|-0.03314820677042007|-0.02155457623302937|-0.05888360738754272|-0.02179481089115143|0.01369988545775414|XArbitraryZVertical|-0.6193479138548964|0.3615235617270452|-0.6473879104053348|-0.2580653629096398|-0.9885101318359375|0.1484274715185165|0.02858224883675575|0|0|0|-1|-1|634762374.9863338|0|4.990005|99.95201|3
2021-02-11 18:52:55.594 +0000|34958.86888975|-1.109481811523438|0.1275177001953125|0.0297393798828125|34958.86389975|2.232711407309561|-1.599986797516868|-0.1483110644217328|0.1558619439601898|0.002186988480389118|-0.01059806440025568|-0.1005563735961914|-0.01333805918693542|-0.001186370849609375|XArbitraryZVertical|-0.6201156645934421|0.3604018910965209|-0.647608848861952|-0.2572350420881833|-0.9886007905006409|0.1477679461240768|0.02886592037975788|0|0|0|-1|-1|634762374.9863338|0|4.990005|99.95201|3
2021-02-11 18:52:55.614 +0000|34958.88885175|-1.1168212890625|0.125823974609375|0.0365447998046875|34958.88386075|2.235696541119307|-1.599185359634082|-0.1482603793950547|0.1359735131263733|0.06307797878980637|0.03633677586913109|-0.1314250826835632|-0.02872982621192932|0.001543521881103516|XArbitraryZVertical|-0.6204020995499584|0.3593579644241487|-0.6482339868487438|-0.2564290735961082|-0.9886311292648315|0.1477178186178207|0.02807382307946682|0|0|0|-1|-1|634762374.9863338|0|4.990005|99.95201|3
2021-02-11 18:52:55.633 +0000|34958.90881275|-1.111785888671875|0.133636474609375|0.0459747314453125|34958.90382275|2.238225166573411|-1.597759000225654|-0.1492554930359705|0.1206156015396118|0.05603339150547981|0.0620432049036026|-0.1238583326339722|-0.0185750424861908|0.01754510402679443|XArbitraryZVertical|-0.6202183539301187|0.3586907175798206|-0.6491322602151394|-0.2555337860132858|-0.9885226488113403|0.1487019509077072|0.02665967494249344|0|0|0|-1|-1|634762374.9863338|0|4.990005|99.95201|3
2021-02-11 18:52:55.653 +0000|34958.92877375001|-1.144088745117188|0.134185791015625|0.0482635498046875|34958.92378375|2.240524108064296|-1.596753300484925|-0.1505758850098466|0.1110041365027428|0.008765740320086479|0.06768689304590225|-0.1330013275146484|-0.01620326936244965|0.01918530277907848|XArbitraryZVertical|-0.620071674481838|0.3582475555736379|-0.6499118025674283|-0.254527916773707|-0.9883518218994141|0.1500075310468674|0.02566038444638252|0|0|0|-1|-1|634762374.9863338|0|4.990005|99.95201|3
2021-02-11 18:52:55.673 +0000|34958.94873475|-1.210281372070312|0.1304168701171875|0.03936767578125|34958.94374475|2.242481306981626|-1.596604735895905|-0.1521305472485336|0.08656406402587891|-0.01069163251668215|0.08945609629154205|-0.1875379085540771|-0.02007472515106201|0.01990270614624023|XArbitraryZVertical|-0.6201006599435144|0.3580906636425663|-0.6504109835777192|-0.2534006223407175|-0.9881213307380676|0.1515444219112396|0.02550750412046909|0|0|0|-1|-1|634762374.9863338|0|4.990005|99.95201|3
2021-02-11 18:52:55.693 +0000|34958.96869675|-1.249176025390625|0.1171722412109375|0.0428466796875|34958.96370575|2.243553517877396|-1.596338822746787|-0.1542647972038974|0.01190960966050625|0.03240092098712921|0.1261261403560638|-0.2530117034912109|-0.03092724084854126|0.01143050193786621|XArbitraryZVertical|-0.6198309725784479|0.3583682201089016|-0.6509086060085371|-0.2523883624938771|-0.9878025650978088|0.1536536663770676|0.02523643150925636|0|0|0|-1|-1|634762374.9863338|0|4.990005|99.95201|3
2021-02-11 18:52:55.737 +0000|34958.98865775|-1.228729248046875|0.106689453125|0.0481414794921875|34958.98366675|2.243129245140028|-1.595625317963356|-0.1574674976526899|-0.04796194285154343|0.04474137350916862|0.193438857793808|-0.2510953545570374|-0.04310907423496246|0.008561845868825912|XArbitraryZVertical|-0.6189582069983179|0.3593749803425358|-0.6514939205430896|-0.2515870080403629|-0.9873231649398804|0.1568175405263901|0.02451927773654461|0|0|0|-1|-1|634762374.9863338|0|4.990005|99.95201|3
2021-02-11 18:52:55.738 +0000|34959.00861875001|-1.223175048828125|0.098876953125|0.0326080322265625|34959.00362875|2.241593082147971|-1.59517521911498|-0.1616249376647425|-0.07905080169439316|0.01906620897352695|0.2486284524202347|-0.2325949668884277|-0.04532161355018616|0.02806532382965088|XArbitraryZVertical|-0.6177991504500006|0.3610451509292541|-0.6519805940737684|-0.2507827061463557|-0.986673891544342|0.160922184586525|0.02405878342688084|0|0|0|-1|-1|634762374.9863338|0|4.990005|99.95201|3
2021-02-11 18:52:55.753 +0000|34959.02857975|-1.255096435546875|0.071990966796875|0.0236663818359375|34959.02358975|2.239045652722067|-1.59497920406604|-0.1667189759551347|-0.192449688911438|0.06782010942697525|0.2576006352901459|-0.254052460193634|-0.07680590450763702|-0.00608396902680397|XArbitraryZVertical|-0.6163671620457329|0.3633375071946681|-0.6523820195223841|-0.2499500423448225|-0.9858461618423462|0.1659477204084396|0.0238452460616827|0|0|0|-1|-1|634762374.9863338|0|4.990005|99.95201|3
2021-02-11 18:52:55.773 +0000|34959.04854075|-1.261077880859375|0.0073089599609375|0.0118408203125|34959.04355075|2.23205325178532|-1.593471758333672|-0.1720009788419647|-0.4866228699684143|0.1723375767469406|0.3108116388320923|-0.2876377701759338|-0.1427423059940338|0.0051116943359375|XArbitraryZVertical|-0.6136503170874275|0.3668824764645052|-0.6526539494166171|-0.2507457770189198|-0.9849910736083984|0.1711541414260864|0.02233892679214478|0|0|0|-1|-1|634762374.9863338|0|4.990005|99.95201|3
2021-02-11 18:52:55.793 +0000|34959.06850275|-1.272476196289062|0.1182861328125|0.0960845947265625|34959.06351175|2.219573764938699|-1.592053659850519|-0.1788235659680907|-0.6918656229972839|0.1955142617225647|0.396819680929184|-0.2702732682228088|-0.1407474428415298|0.01340031437575817|XArbitraryZVertical|-0.609638600775543|0.3725576027868212|-0.6524029865340361|-0.252808272338477|-0.9838313460350037|0.1778720170259476|0.02091678231954575|0|0|0|-1|-1|634762374.9863338|0|4.990005|99.95201|3
2021-02-11 18:52:55.813 +0000|34959.08846375|-1.372787475585938|-0.018890380859375|0.0404052734375|34959.08347375|2.205944671494473|-1.589885679678698|-0.1868607473671454|-0.6583813428878784|0.3034941554069519|0.4103317558765411|-0.3281641602516174|-0.04463145136833191|0.04676532745361328|XArbitraryZVertical|-0.604882437226779|0.3788075942159099|-0.6523816039354006|-0.2549908732204349|-0.9824132919311523|0.1857752054929733|0.01875591278076172|0|0|0|-1|-1|634762374.9863338|0|4.990005|99.95201|3
2021-02-11 18:52:55.833 +0000|34959.10842475|-1.42950439453125|-0.164031982421875|0.0947723388671875|34959.10343475|2.1880500977009|-1.585399757653314|-0.1944607804415836|-1.150583267211914|0.4550533592700958|0.367212325334549|-0.4276286959648132|-0.3530123233795166|0.03445470333099365|XArbitraryZVertical|-0.5985619508869003|0.3858593395815093|-0.6524323665625169|-0.2591684427817172|-0.981047511100769|0.1932375133037567|0.01432767789810896|0|0|0|-1|-1|634762374.9863338|0|4.990005|99.95201|3
2021-02-11 18:52:55.853 +0000|34959.12838575|-1.482437133789062|-0.12310791015625|0.127410888671875|34959.12339575|2.156932534694888|-1.580628398438477|-0.1995166652750724|-1.893978357315063|0.6095297932624817|0.1806903183460236|-0.4918696880340576|-0.325575977563858|0.1218024492263794|XArbitraryZVertical|-0.5899455262560908|0.3959579684941429|-0.6504236646580659|-0.2685716259687431|-0.9801152348518372|0.198195606470108|0.009636873379349709|0|0|0|-1|-1|634762374.9863338|0|4.990005|99.95201|3
2021-02-11 18:52:55.873 +0000|34959.14834675|-1.477127075195312|-0.0446624755859375|0.2249603271484375|34959.14335675|2.109915060269955|-1.576184068418532|-0.2028794801074985|-2.652593851089478|0.8501896262168884|0.2033286094665527|-0.5167548060417175|-0.2762129306793213|0.160219669342041|XArbitraryZVertical|-0.5783564735692655|0.4100517013969832|-0.6457005555998173|-0.2836059180959222|-0.9794763922691345|0.201490581035614|0.005277216900140047|0|0|0|-1|-1|634762374.9863338|0|4.990005|99.95201|3
2021-02-11 18:52:55.893 +0000|34959.16830875|-1.362350463867188|0.081756591796875|0.218536376953125|34959.16331775|2.049143748269401|-1.568659316306934|-0.208272546081054|-3.240416526794434|1.137152433395386|0.3452558219432831|-0.4224305748939514|-0.1950970888137817|0.2300419807434082|XArbitraryZVertical|-0.5620785952153139|0.4278109852312167|-0.6397267180394721|-0.3029773341557809|-0.9783874750137329|0.2067700922489166|-0.002090827329084277|0|0|0|-1|-1|634762374.9863338|0|4.990005|99.95201|3
2021-02-11 18:52:55.913 +0000|34959.18826975|-1.201568603515625|0.05218505859375|0.1806488037109375|34959.18327975|1.982134023703643|-1.555975651198097|-0.2163984550470932|-3.272961139678955|1.528455018997192|0.4231501817703247|-0.3106920719146729|-0.1080698072910309|0.2278991937637329|XArbitraryZVertical|-0.5416014122013798|0.446576608789713|-0.6339741052609014|-0.3245214351837085|-0.9765698909759521|0.2147134840488434|-0.0144744860008359|0|0|0|-1|-1|634762374.9863338|0|4.990005|99.95201|3
2021-02-11 18:52:55.933 +0000|34959.20823075|-1.094482421875|0.03778076171875|0.1328277587890625|34959.20324075|1.917399239377058|-1.538203564876556|-0.2271197361358476|-3.16828465461731|1.670215606689453|0.4906001389026642|-0.1411734223365784|-0.2079908102750778|0.1745877265930176|XArbitraryZVertical|-0.5187705227474843|0.4636831690464713|-0.62957726405621|-0.3456987054471749|-0.9738016128540039|0.2251721620559692|-0.03175012767314911|0|0|0|-1|-1|634762374.9863338|0|4.990005|99.95201|3
2021-02-11 18:52:55.953 +0000|34959.22819175|-1.073043823242188|0.11968994140625|0.0651702880859375|34959.22320175|1.853453551775922|-1.517124537065278|-0.2381083046773096|-3.093353033065796|1.945746541023254|0.3891362845897675|-0.0790671706199646|-0.1411840170621872|0.2515343427658081|XArbitraryZVertical|-0.4944101474475054|0.4790536304870661|-0.6253624832324292|-0.3674071123871364|-0.9703865647315979|0.2358647286891937|-0.05213245004415512|0|0|0|-1|-1|634762374.9863338|0|4.990005|99.95201|3
2021-02-11 18:52:55.973 +0000|34959.24815375|-1.03448486328125|0.173126220703125|-0.0330657958984375|34959.24316275|1.791705676458028|-1.490049088070284|-0.25150532076282|-2.980700254440308|2.263283491134644|0.5799323320388794|-0.07464063167572021|-0.08696648478507996|0.1107757091522217|XArbitraryZVertical|-0.4675478776073166|0.4922784122830117|-0.6225035367003613|-0.3892947871518211|-0.9653832316398621|0.2488622069358826|-0.07812189310789108|0|0|0|-1|-1|634762374.9863338|0|4.990005|99.95201|3
2021-02-11 18:52:55.993 +0000|34959.26811475|-0.92413330078125|0.1104736328125|-0.0795135498046875|34959.26312375|1.730884936229708|-1.456434116169111|-0.2690673886452754|-3.04064416885376|2.660569429397583|0.653020441532135|-0.050975501537323|-0.1498504281044006|0.04656122624874115|XArbitraryZVertical|-0.4372509029855731|0.5037936402512143|-0.6210046200589767|-0.4115301497449456|-0.9577221870422363|0.2658324837684631|-0.1100072339177132|0|0|0|-1|-1|634762374.9863338|0|4.990005|99.95201|3
2021-02-11 18:52:56.013 +0000|34959.28807575|-0.851470947265625|0.058258056640625|-0.110382080078125|34959.28308575|1.669130623414466|-1.416434412792027|-0.2910422060447653|-3.161277532577515|3.020724296569824|0.720352828502655|0.02544313669204712|-0.2248169779777527|0.04855942726135254|XArbitraryZVertical|-0.40295772915913|0.5137929481285004|-0.6202004861020575|-0.4347335834921953|-0.9465552568435669|0.2869507670402527|-0.147283747792244|0|0|0|-1|-1|634762374.9863338|0|4.990005|99.95201|3
2021-02-11 18:52:56.033 +0000|34959.30803675|-0.7530517578125|-0.0826568603515625|-0.118316650390625|34959.30304675|1.601361812834469|-1.374658435303292|-0.3175353573207132|-3.676552772521973|3.188420057296753|0.7747538685798645|0.1347194910049438|-0.3285835385322571|0.07651285827159882|XArbitraryZVertical|-0.3646369201152175|0.5238986954601705|-0.6177025041871036|-0.4593624127486063|-0.9317930340766907|0.3122260868549347|-0.1851401478052139|0|0|0|-1|-1|634762374.9863338|0|4.990005|99.95201|3
2021-02-11 18:52:56.052 +0000|34959.32799775|-0.6580810546875|-0.049835205078125|-0.174774169921875|34959.32300775|1.525948911914267|-1.334508901458326|-0.3504426863945753|-3.989195585250854|3.213776588439941|0.9438194036483765|0.1624214649200439|-0.3319457769393921|0.07521346211433411|XArbitraryZVertical|-0.3221342989245215|0.535066452112641|-0.6125159068763425|-0.4845181124607237|-0.9131235480308533|0.3433136343955994|-0.2198667675256729|0|0|0|-1|-1|634762374.9863338|0|4.990005|99.95201|3
2021-02-11 18:52:56.072 +0000|34959.34795975|-0.556304931640625|-0.1207427978515625|-0.125885009765625|34959.34296875|1.445876983571462|-1.298286781596293|-0.3896755026840419|-4.317045211791992|3.309586763381958|1.098374128341675|0.2474493980407715|-0.4648492336273193|0.1156709939241409|XArbitraryZVertical|-0.2767172884576097|0.5467555848895402|-0.6048144124683305|-0.5086112484009983|-0.890897274017334|0.3798882663249969|-0.2489717453718185|0|0|0|-1|-1|634762374.9863338|0|4.990005|99.95201|3
2021-02-11 18:52:56.092 +0000|34959.36792075|-0.5724639892578125|0.13970947265625|-0.150421142578125|34959.36293075|1.360074572001898|-1.26796320498045|-0.436740449048891|-4.652648448944092|3.268787622451782|1.196992158889771|0.3557924032211304|-0.3502647876739502|0.09809830784797668|XArbitraryZVertical|-0.2279275592184671|0.559403858011731|-0.5943759847624069|-0.5308798887437198|-0.8649018406867981|0.4229881167411804|-0.2702327072620392|0|0|0|-1|-1|634762374.9863338|0|4.990005|99.95201|3
2021-02-11 18:52:56.112 +0000|34959.38788175|-0.521331787109375|0.3358612060546875|-0.24371337890625|34959.38289175|1.270997721521571|-1.244497302737475|-0.4889156774014249|-4.528047561645508|3.048604011535645|1.347943186759949|0.3259293437004089|-0.2607454657554626|0.09130510687828064|XArbitraryZVertical|-0.1774169286564556|0.5718655621761065|-0.581514591800753|-0.550757645161897|-0.8362597227096558|0.4696688652038574|-0.2829860150814056|0|0|0|-1|-1|634762374.9863338|0|4.990005|99.95201|3
2021-02-11 18:52:56.132 +0000|34959.40784275|-0.5572662353515625|0.6353302001953125|-0.353515625|34959.40285275|1.191771199117197|-1.221072478799445|-0.5428917060361355|-3.707489252090454|3.180037021636963|1.476446270942688|0.2487862110137939|0.05325591564178467|0.01010912656784058|XArbitraryZVertical|-0.1281591847941226|0.580421028623812|-0.5702353943112409|-0.5670258768627404|-0.8043892979621887|0.5166140794754028|-0.293373316526413|0|0|0|-1|-1|634762374.9863338|0|4.990005|99.95201|3
2021-02-11 18:52:56.152 +0000|34959.42780475|-0.48419189453125|0.4640350341796875|-0.451019287109375|34959.42281375|1.130760667118641|-1.189035596801484|-0.5942108580928479|-3.054067134857178|3.353464841842651|1.520492315292358|0.2529797554016113|-0.02228790521621704|-0.09613531827926636|XArbitraryZVertical|-0.08214208038013485|0.5821553721681469|-0.5628273153146435|-0.5810105894035058|-0.7689405083656311|0.559855043888092|-0.3086956143379211|0|0|0|-1|-1|634762374.9863338|0|4.990005|99.95201|3
2021-02-11 18:52:56.172 +0000|34959.44776575|-0.4061279296875|0.4334564208984375|-0.472381591796875|34959.44277575|1.076204338199397|-1.15324578863323|-0.6463934511547821|-3.204759359359741|3.392701625823975|1.580659747123718|0.2949098944664001|-0.1508343815803528|-0.165239542722702|XArbitraryZVertical|-0.03632896791100278|0.5803651442729982|-0.5560789968361756|-0.593828781294401|-0.7296786308288574|0.602311372756958|-0.3237130045890808|0|0|0|-1|-1|634762374.9863338|0|4.990005|99.95201|3
2021-02-11 18:52:56.192 +0000|34959.46772675|-0.323089599609375|0.50830078125|-0.463134765625|34959.46273675|1.013108946531678|-1.127256349354746|-0.7051971790897095|-3.780465602874756|3.113114356994629|1.757551908493042|0.3212392926216125|-0.1960508227348328|-0.1253961324691772|XArbitraryZVertical|0.01200528742130963|0.5800555569205851|-0.546221190262131|-0.6041803441155698|-0.6878012418746948|0.6481840014457703|-0.3267828524112701|0|0|0|-1|-1|634762374.9863338|0|4.990005|99.95201|3
2021-02-11 18:52:56.225 +0000|34959.48768775|-0.303863525390625|0.649139404296875|-0.3602142333984375|34959.48269775001|0.9395914814153939|-1.117344342391433|-0.7723430902027391|-3.877329349517822|2.915066003799438|1.92097270488739|0.3097843527793884|-0.135132372379303|-0.1024028062820435|XArbitraryZVertical|0.06248872716127464|0.5824129338131075|-0.533620682036583|-0.6100322822703956|-0.6438908576965332|0.697815477848053|-0.313780665397644|0|0|0|-1|-1|634762374.9863338|0|4.990005|99.95201|3
2021-02-11 18:52:56.233 +0000|34959.50764975|-0.2746124267578125|0.5954437255859375|-0.311859130859375|34959.50265875|0.8673675633814315|-1.115198572098336|-0.8410194134051896|-3.431801795959473|2.576586484909058|1.984504342079163|0.3361709713935852|-0.1794357299804688|-0.0571301281452179|XArbitraryZVertical|0.1113372761946175|0.5838917222351868|-0.5215170360697967|-0.6121228999594248|-0.5986984372138977|0.7453231811523438|-0.2933489382266998|0|0|0|-1|-1|634762374.9863338|0|4.990005|99.95201|3
2021-02-11 18:52:56.252 +0000|34959.52761075|-0.4280242919921875|0.8642578125|-0.14031982421875|34959.52261975|0.8051843719889166|-1.113755754765572|-0.9038182311041341|-2.943206548690796|2.702522754669189|1.811575889587402|0.2932348847389221|-0.03091859817504883|0.0966758131980896|XArbitraryZVertical|0.154770898331281|0.5827095302601698|-0.5115688770055035|-0.6122033482292902|-0.5551214814186096|0.7856946587562561|-0.2729911506175995|0|0|0|-1|-1|634762374.9863338|0|4.990005|99.95201|3
2021-02-11 18:52:56.272 +0000|34959.54757175|-0.3745880126953125|1.084152221679688|-0.2521514892578125|34959.54258175|0.7518246498359821|-1.102273607434627|-0.9559654661189414|-2.17656135559082|2.706913232803345|1.427622675895691|0.126873254776001|0.1201101541519165|0.09969222545623779|XArbitraryZVertical|0.1938152654269139|0.5763667695590928|-0.5017650941584268|-0.6151981069993632|-0.5146600008010864|0.8168710470199585|-0.2604739665985107|0|0|0|-1|-1|634762374.9863338|0|4.990005|99.95201|3
2021-02-11 18:52:56.292 +0000|34959.56753275|-0.3948822021484375|0.6954345703125|-0.2894439697265625|34959.56254275001|0.7103181250299166|-1.083068763458505|-0.9965772961665765|-2.028307199478149|2.637980699539185|1.122183680534363|0.1029068231582642|0.06330686807632446|-0.08175915479660034|XArbitraryZVertical|0.2265350233813399|0.56692999407717|-0.4927219797951931|-0.6200785697674993|-0.479844719171524|0.8396167755126953|-0.2545445263385773|0|0|0|-1|-1|634762374.9863338|0|4.990005|99.95201|3
2021-02-11 18:52:56.312 +0000|34959.58749375|-0.3714141845703125|0.705718994140625|-0.189239501953125|34959.58250375|0.6465461876284306|-1.088437836911599|-1.036884531731093|-2.826454639434814|2.212637424468994|0.9181066751480103|0.07211720943450928|-0.2322371006011963|-0.0346253514289856|XArbitraryZVertical|0.2591187048818|0.5610924336080942|-0.4793343958749793|-0.6231142713153976|-0.4508403837680817|0.8608229160308838|-0.2360655516386032|0|0|0|-1|-1|634762374.9863338|0|4.990005|99.95201|3
2021-02-11 18:52:56.332 +0000|34959.60745575|-0.3174896240234375|0.748046875|-0.0832061767578125|34959.60246475|0.5535006845584348|-1.12979507038655|-1.080274665310679|-3.106216192245483|1.764117121696472|0.949091911315918|0.06865400075912476|-0.125800609588623|0.06504875421524048|XArbitraryZVertical|0.2923874475647517|0.5603295152065959|-0.4627478346029552|-0.6216147350760339|-0.4260148406028748|0.882087230682373|-0.2010808289051056|0|0|0|-1|-1|634762374.9863338|0|4.990005|99.95201|3
2021-02-11 18:52:56.352 +0000|34959.62741675|-0.3459625244140625|1.020034790039062|-0.090240478515625|34959.62242675|0.4536334803960073|-1.186638939121117|-1.120726085203305|-2.342589378356934|1.47028124332428|0.9124999046325684|0.08096432685852051|-0.07708287239074707|0.07105924189090729|XArbitraryZVertical|0.3228662087715123|0.5605691702365196|-0.4474843923574147|-0.6174765701587283|-0.4033214747905731|0.9004165530204773|-0.1630392372608185|0|0|0|-1|-1|634762374.9863338|0|4.990005|99.95201|3
2021-02-11 18:52:56.372 +0000|34959.64737775|-0.3859710693359375|0.9501800537109375|-0.02276611328125|34959.64238775001|0.4018938071583661|-1.205814880522498|-1.147789183145253|-0.7692173719406128|1.318324089050293|0.7068066596984863|0.01266089081764221|0.1560888290405273|0.0650402307510376|XArbitraryZVertical|0.3431414662227686|0.5558712465776164|-0.4397224231670966|-0.616364616382347|-0.3834647536277771|0.9118586182594299|-0.1465221792459488|0|0|0|-1|-1|634762374.9863338|0|4.990005|99.95201|3
2021-02-11 18:52:56.392 +0000|34959.66733875001|-0.4151763916015625|0.9093170166015625|0.0807952880859375|34959.66234875|0.3945339878017207|-1.188349637675824|-1.160090932888794|0.0329420417547226|1.10695743560791|0.2829311192035675|-0.05007481575012207|-0.03074628114700317|0.1894652992486954|XArbitraryZVertical|0.3535484837173155|0.5481824240187363|-0.4367054712260415|-0.6195061082919064|-0.370411604642868|0.9168394207954407|-0.1489990055561066|0|0|0|-1|-1|634762374.9863338|0|4.990005|99.95201|3
2021-02-11 18:52:56.412 +0000|34959.68730075|-0.53961181640625|0.94683837890625|0.228302001953125|34959.68230975|0.4082058137515188|-1.157942351998947|-1.160281859270736|0.4562788307666779|0.8077961206436157|-0.001958947628736496|-0.06941691040992737|-0.0424344539642334|0.3129381537437439|XArbitraryZVertical|0.3565272366040923|0.5411355041445897|-0.4355951159093222|-0.6247540424168585|-0.3655501306056976|0.9169156551361084|-0.1601213961839676|0|0|0|-1|-1|634762374.9863338|0|4.990005|99.95201|3
2021-02-11 18:52:56.432 +0000|34959.70726175|-0.5529632568359375|1.0704345703125|0.187896728515625|34959.70227175|0.4311792665472532|-1.12378729593534|-1.156440646472983|0.5813826322555542|0.5448336005210876|0.05922753363847733|-0.1623939871788025|0.08128243684768677|0.4100246429443359|XArbitraryZVertical|0.3563489163199499|0.5347890837570277|-0.4360500142892528|-0.6299813440395456|-0.3630423843860626|0.9153758883476257|-0.1740321666002274|0|0|0|-1|-1|634762374.9863338|0|4.990005|99.95201|3
2021-02-11 18:52:56.452 +0000|34959.72722275|-0.5362091064453125|0.823638916015625|0.10357666015625|34959.72223275|0.4580113024099667|-1.086792284436703|-1.152938571709873|0.4135424196720123|0.7514252066612244|0.07179774343967438|-0.2046045064926147|0.114604115486145|0.3697395324707031|XArbitraryZVertical|0.3559683056355319|0.5280822656084374|-0.437375290935511|-0.6349162143780807|-0.3591924905776978|0.913960337638855|-0.1888313740491867|0|0|0|-1|-1|634762374.9863338|0|4.990005|99.95201|3
2021-02-11 18:52:56.472 +0000|34959.74718375001|-0.509765625|0.6272430419921875|0.0413665771484375|34959.74219375|0.4622977172782461|-1.064622966977238|-1.152489524713936|-0.3706943094730377|1.076290607452393|-0.01871200650930405|-0.1602868139743805|-0.2197930812835693|0.2697154879570007|XArbitraryZVertical|0.3595049072674783|0.5218075089093722|-0.4347061261150105|-0.6399247957461702|-0.3552771508693695|0.9137780666351318|-0.1969462931156158|0|0|0|-1|-1|634762374.9863338|0|4.990005|99.95201|3
2021-02-11 18:52:56.492 +0000|34959.76714575|-0.40521240234375|0.5860137939453125|-0.1545257568359375|34959.76215475|0.4160220344444573|-1.086942608023175|-1.160312815931829|-1.466074109077454|0.8085198998451233|-0.2342212200164795|-0.1282763779163361|-0.2966123819351196|0.08647018671035767|XArbitraryZVertical|0.3697450213981844|0.5200673911278942|-0.4251834900089334|-0.6419016070672275|-0.3532452285289764|0.9169279932975769|-0.1856370568275452|0|0|0|-1|-1|634762374.9863338|0|4.990005|99.95201|3
2021-02-11 18:52:56.512 +0000|34959.78710675|-0.417266845703125|0.8948974609375|-0.2016448974609375|34959.78211575|0.3502396697654355|-1.133365873682592|-1.166911278448348|-1.098528861999512|0.433892548084259|-0.2684016525745392|-0.09835502505302429|-0.2519690990447998|0.06435024738311768|XArbitraryZVertical|0.3796299321049046|0.5221517344901605|-0.4139003095564365|-0.6418139974941605|-0.3559906780719757|0.9195411205291748|-0.1664773672819138|0|0|0|-1|-1|634762374.9863338|0|4.990005|99.95201|3
2021-02-11 18:52:56.532 +0000|34959.80706775|-0.7758026123046875|1.105178833007812|-0.0997314453125|34959.80207775|0.3336229328848715|-1.142157748226049|-1.162698147361994|0.3022690415382385|0.6457552909851074|-0.2052404284477234|-0.1549383997917175|-0.100830078125|-0.3350347280502319|XArbitraryZVertical|0.3805917647936869|0.5221828286196117|-0.4094615431084905|-0.6440623772881544|-0.3609612584114075|0.9178772568702698|-0.1649499982595444|0|0|0|-1|-1|634762374.9863338|0|4.990005|99.95201|3
2021-02-11 18:52:56.552 +0000|34959.82702875001|-0.4295806884765625|0.4600830078125|0.2891998291015625|34959.82203875|0.3269421226501176|-1.136235430700694|-1.159352103591744|-0.8652940392494202|0.3059205710887909|-0.2527381777763367|-0.2550667524337769|-0.2466223239898682|0.2344778925180435|XArbitraryZVertical|0.3822945424023287|0.5192903537620909|-0.4055572118955469|-0.6478516362478948|-0.3627615869045258|0.9165441989898682|-0.1683768182992935|0|0|0|-1|-1|634762374.9863338|0|4.990005|99.95201|3
2021-02-11 18:52:56.572 +0000|34959.84698975|-0.6411285400390625|1.00469970703125|0.35504150390625|34959.84199975|0.2812954793216472|-1.175156621614331|-1.161303084153389|-0.6573561429977417|0.0609809048473835|-0.2659296989440918|-0.2026193141937256|-0.2713266015052795|0.4504413604736328|XArbitraryZVertical|0.3870830270960287|0.5229192641529374|-0.3986460355328849|-0.6463772435281152|-0.3673880100250244|0.9173226952552795|-0.1534443497657776|0|0|0|-1|-1|634762374.9863338|0|4.990005|99.95201|3
2021-02-11 18:52:56.592 +0000|34959.86695175|-0.5246124267578125|0.797882080078125|0.4188385009765625|34959.86196075|0.2634763958641889|-1.192432410182481|-1.15976809367711|-0.011397959664464|-0.1879225969314575|-0.1938574463129044|-0.2180025577545166|-0.0658193826675415|0.5565303564071655|XArbitraryZVertical|0.3877608619262226|0.5252086486922304|-0.3959288481888127|-0.6457845714479524|-0.3712918758392334|0.9167104959487915|-0.1475947797298431|0|0|0|-1|-1|634762374.9863338|0|4.990005|99.95201|3
2021-02-11 18:52:56.612 +0000|34959.88691275|-0.55413818359375|0.7971038818359375|0.220916748046875|34959.88192275|0.2603254810453507|-1.201428809252366|-1.157790943260371|-0.06879254430532455|-0.3088330626487732|-0.02198955975472927|-0.1466253995895386|-0.1141455769538879|0.4713034629821777|XArbitraryZVertical|0.386091159570467|0.5277141752712018|-0.396249100318373|-0.6445448984688386|-0.3742944002151489|0.9159187078475952|-0.1449027359485626|0|0|0|-1|-1|634762374.9863338|0|4.990005|99.95201|3
2021-02-11 18:52:56.632 +0000|34959.90687375001|-0.5110931396484375|1.02716064453125|0.2465057373046875|34959.90188375|0.2534947211020592|-1.206521658016337|-1.159264705289352|-0.3829769194126129|0.3359578549861908|0.06542115658521652|-0.2286056280136108|-0.04239428043365479|0.3592493534088135|XArbitraryZVertical|0.387419262505159|0.527872702824998|-0.3953370910274354|-0.644177973951419|-0.3737655282020569|0.916509211063385|-0.1425134539604187|0|0|0|-1|-1|634762374.9863338|0|4.990005|99.95201|3
2021-02-11 18:52:56.652 +0000|34959.92683475|-0.29345703125|1.187393188476562|0.047454833984375|34959.92184475|0.2274925096177856|-1.22302220808857|-1.166282909174731|-0.9490159749984741|0.2765057384967804|0.1960845291614532|0.01376298069953918|0.2382529973983765|0.2573767900466919|XArbitraryZVertical|0.3935547892343618|0.52730336200945|-0.3916618701748186|-0.6431693667056761|-0.3700099289417267|0.919293999671936|-0.1341315805912018|0|0|0|-1|-1|634762374.9863338|0|4.990005|99.95201|3
2021-02-11 18:52:56.672 +0000|34959.94679675|-0.2195587158203125|1.043533325195312|-0.2278900146484375|34959.94180575|0.1654494235010903|-1.274122067066074|-1.181348267899122|-1.914728164672852|0.3762297332286835|0.3948929607868195|0.09876316785812378|0.2335878014564514|0.07310798019170761|XArbitraryZVertical|0.4053250884833101|0.5293522640870602|-0.3853116270195281|-0.637991097750942|-0.3630911111831665|0.9251187443733215|-0.1109955087304115|0|0|0|-1|-1|634762374.9863338|0|4.990005|99.95201|3
2021-02-11 18:52:56.692 +0000|34959.96675775|-0.048828125|1.178543090820312|-0.3267822265625|34959.96176775|0.06889259943437699|-1.355047420081708|-1.198291244259565|-2.090266942977905|0.4318159818649292|0.4614095985889435|0.2171304225921631|0.1367424726486206|-0.2474185228347778|XArbitraryZVertical|0.4212896901623606|0.5325016002117049|-0.3754619266080754|-0.6308609059372503|-0.355512410402298|0.9314185380935669|-0.07791408896446228|0|0|0|-1|-1|634762374.9863338|0|4.990005|99.95201|3
2021-02-11 18:52:56.734 +0000|34959.98671875|0.0364227294921875|1.162216186523438|-0.35748291015625|34959.98172875|-0.02213608660298787|-1.430367923911302|-1.213225957757454|-1.314728498458862|0.4994247853755951|0.4484848976135254|0.3372159004211426|0.2938257455825806|-0.3254010677337646|XArbitraryZVertical|0.4363373489047663|0.5339620422850767|-0.366950705196234|-0.6243729333633012|-0.346554309129715|0.9367499351501465|-0.04898850992321968|0|0|0|-1|-1|634762374.9863338|0|4.990005|99.95201|3
2021-02-11 18:52:56.735 +0000|34960.00667975|0.0168304443359375|1.060760498046875|-0.244842529296875|34960.00168975|-0.07937732822026781|-1.474057292953569|-1.224730610410686|-0.824948787689209|0.548684298992157|0.5029259920120239|0.3601664900779724|0.1517233848571777|-0.2477090358734131|XArbitraryZVertical|0.4471113463028009|0.5326444259433978|-0.3619745516303676|-0.6207704709269237|-0.3376139998435974|0.9407144784927368|-0.03276271745562553|0|0|0|-1|-1|634762374.9863338|0|4.990005|99.95201|3
2021-02-11 18:52:56.752 +0000|34960.02664175|-0.0161895751953125|1.009033203125|-0.238616943359375|34960.02165075|-0.105599281883669|-1.487999497591718|-1.234667157180259|-0.1903176754713058|0.4716912508010864|0.3863003849983215|0.3483437895774841|0.1478042006492615|-0.2237594127655029|XArbitraryZVertical|0.4544582203978368|0.5289883258302127|-0.3598174659635632|-0.6198149448585073|-0.3287057280540466|0.944038450717926|-0.02727815322577953|0|0|0|-1|-1|634762374.9863338|0|4.990005|99.95201|3
2021-02-11 18:52:56.772 +0000|34960.04660275|-0.042205810546875|0.8859405517578125|-0.173614501953125|34960.04161275|-0.1100009735099044|-1.485032033520777|-1.241026812030906|-0.09967806935310364|0.2150718867778778|0.2559065222740173|0.2691831886768341|-0.05198252201080322|-0.1671314239501953|XArbitraryZVertical|0.4579894669295927|0.5257150931364619|-0.3595994891038589|-0.6201269775144123|-0.3226346671581268|0.9461169838905334|-0.02773857861757278|0|0|0|-1|-1|634762374.9863338|0|4.990005|99.95201|3
2021-02-11 18:52:56.792 +0000|34960.06656375|-0.04229736328125|0.879669189453125|-0.16455078125|34960.06157375|-0.1158318727600331|-1.489274634614738|-1.245125702366301|-0.08629019558429718|-0.02318745106458664|0.1590905636548996|0.2830236852169037|-0.04741191864013672|-0.1559990644454956|XArbitraryZVertical|0.4599365080434754|0.524815819111202|-0.3599419509362519|-0.619248426113118|-0.3188818395137787|0.9474363923072815|-0.0260535292327404|0|0|0|-1|-1|634762374.9863338|0|4.990005|99.95201|3
2021-02-11 18:52:56.811 +0000|34960.08652475|-0.06121826171875|0.90411376953125|-0.153289794921875|34960.08153475|-0.1169767144065949|-1.491653881922742|-1.248279113765866|0.002663647755980492|-0.09383099526166916|0.1854555904865265|0.2707055807113647|-0.0656585693359375|-0.134472131729126|XArbitraryZVertical|0.4607109451133566|0.5246105286598934|-0.3610413623858501|-0.618205825788672|-0.3159631490707397|0.9484405517578125|-0.02505843713879585|0|0|0|-1|-1|634762374.9863338|0|4.990005|99.95201|3
2021-02-11 18:52:56.831 +0000|34960.10648675|-0.05029296875|0.8429412841796875|-0.0449066162109375|34960.10149575|-0.1125449189339778|-1.489464219995266|-1.25325978190364|0.1127475127577782|-0.138720229268074|0.3226484358310699|0.2378307282924652|-0.07284075021743774|-0.08208632469177246|XArbitraryZVertical|0.4613704480265576|0.5238838247673581|-0.3633337537319863|-0.6169858807834403|-0.3111949265003204|0.950007438659668|-0.02536609582602978|0|0|0|-1|-1|634762374.9863338|0|4.990005|99.95201|3
2021-02-11 18:52:56.851 +0000|34960.12644775|-0.0500640869140625|0.7412109375|-0.008056640625|34960.12145775|-0.1041577386582796|-1.485648428768832|-1.260893836377771|0.04692611843347549|-0.3002607524394989|0.4495278894901276|0.2682165503501892|-0.1491100788116455|0.02669882774353027|XArbitraryZVertical|0.4620587890821203|0.5230045453443345|-0.3672126284707122|-0.6149169514028742|-0.3038610816001892|0.9523633122444153|-0.02593584172427654|0|0|0|-1|-1|634762374.9863338|0|4.990005|99.95201|3
2021-02-11 18:52:56.871 +0000|34960.14640875|-0.0840911865234375|0.675689697265625|-0.1587982177734375|34960.14141875|-0.1014664899450001|-1.490520092720062|-1.270082722445443|-0.06809156388044357|-0.4450197517871857|0.4733485579490662|0.2151392102241516|-0.2829910516738892|-0.07736754417419434|XArbitraryZVertical|0.4630826658464496|0.5231426480335076|-0.3717731710338993|-0.6112780728202415|-0.2952478229999542|0.9551253318786621|-0.02375242859125137|0|0|0|-1|-1|634762374.9863338|0|4.990005|99.95201|3
2021-02-11 18:52:56.891 +0000|34960.16636975|-0.1544189453125|0.65899658203125|-0.22314453125|34960.16137975|-0.1080314149394185|-1.506139173128269|-1.279970413750222|-0.1127880439162254|-0.4458101689815521|0.4537398517131805|0.1822931170463562|-0.2653041481971741|-0.1679810285568237|XArbitraryZVertical|0.4646811466036319|0.5242212103231513|-0.3762119863313035|-0.6064058930902736|-0.2861444354057312|0.9580073952674866|-0.01852710917592049|0|0|0|-1|-1|634762374.9863338|0|4.990005|99.95201|3
2021-02-11 18:52:56.911 +0000|34960.18633175|-0.238128662109375|0.6474151611328125|-0.2036590576171875|34960.18134075|-0.1126942697392697|-1.517896346564767|-1.285974732148606|-0.1243259906768799|-0.2425833493471146|0.08417300879955292|0.0995936393737793|-0.3077342510223389|-0.197148323059082|XArbitraryZVertical|0.4653635789623202|0.5253647461516738|-0.3792554970848309|-0.6029875207742064|-0.2805933952331543|0.9597117900848389|-0.01485724560916424|0|0|0|-1|-1|634762374.9863338|0|4.990005|99.95201|3
2021-02-11 18:52:56.931 +0000|34960.20629275|-0.4049530029296875|0.718048095703125|-0.04815673828125|34960.20130275|-0.1247196986257169|-1.532690237206737|-1.281843788277859|-0.1791431158781052|-0.1145301982760429|-0.5105252265930176|-0.02168500423431396|-0.3152626752853394|-0.1449823379516602|XArbitraryZVertical|0.4645866771835058|0.5279501765752004|-0.3778776292810813|-0.6021930664321621|-0.2847420573234558|0.9585428833961487|-0.01085566077381372|0|0|0|-1|-1|634762374.9863338|0|4.990005|99.95201|3
2021-02-11 18:52:56.951 +0000|34960.22625375|-0.76416015625|0.957305908203125|0.091156005859375|34960.22126375001|-0.1429927212597991|-1.551173731253402|-1.268523102809063|-0.4119951128959656|0.01058212481439114|-0.781689465045929|-0.2885165214538574|-0.1415516138076782|0.03028571419417858|XArbitraryZVertical|0.4623163962094319|0.5322997206938966|-0.3727422889556371|-0.6033108599218274|-0.2976346611976624|0.9546622633934021|-0.005841114092618227|0|0|0|-1|-1|634762374.9863338|0|4.990005|99.95201|3
2021-02-11 18:52:56.971 +0000|34960.24621475|-0.753143310546875|0.9753570556640625|0.1551513671875|34960.24122475|-0.1870281731395038|-1.591648585086993|-1.252274980731046|-0.9302229881286621|0.1331721693277359|-0.8363119959831238|-0.4916998147964478|0.04262524843215942|0.1293652057647705|XArbitraryZVertical|0.4623011990881329|0.5380914771166821|-0.3639050924540928|-0.6035795050139167|-0.3130944669246674|0.9496995210647583|0.006529673002660275|0|0|0|-1|-1|634762374.9863338|0|4.990005|99.95201|3
2021-02-11 18:52:56.991 +0000|34960.26617675|-0.740875244140625|0.7747955322265625|0.1406097412109375|34960.26118575|-0.2595634497583343|-1.656663184941122|-1.235026040276294|-1.512633323669434|0.2459030896425247|-0.7616508007049561|-0.3873240053653717|-0.04724514484405518|0.1145031452178955|XArbitraryZVertical|0.4659247825413938|0.5450166412633635|-0.3516881014787894|-0.6018192939643039|-0.3282826542854309|0.9441567659378052|0.02825808525085449|0|0|0|-1|-1|634762374.9863338|0|4.990005|99.95201|3
2021-02-11 18:52:57.011 +0000|34960.28613775|-0.80859375|0.5865936279296875|0.0989990234375|34960.28114675|-0.3568221337083972|-1.739671632185604|-1.214468019167699|-2.007499933242798|0.6013977527618408|-0.9214292168617249|-0.4455248713493347|-0.2951398491859436|0.06638514995574951|XArbitraryZVertical|0.4735451410677017|0.5523314773357089|-0.3351469685856217|-0.5986330183690652|-0.3438732922077179|0.9371839761734009|0.05863012373447418|0|0|0|-1|-1|634762374.9863338|0|4.990005|99.95201|3
2021-02-11 18:52:57.031 +0000|34960.30609875|-0.84503173828125|0.6575775146484375|0.065704345703125|34960.30110875001|-0.4617497482778586|-1.823608524659934|-1.183622518629353|-2.219598531723022|0.804099440574646|-1.261488914489746|-0.4423663020133972|-0.3462982773780823|-0.02179442346096039|XArbitraryZVertical|0.4826753139013159|0.5605758892621584|-0.3130634954894754|-0.5956262302149883|-0.3655713796615601|0.9259798526763916|0.09444157034158707|0|0|0|-1|-1|634762374.9863338|0|4.990005|99.95201|3
2021-02-11 18:52:57.051 +0000|34960.32605975|-0.854248046875|0.7125701904296875|0.0835418701171875|34960.32106975|-0.5359620736209638|-1.87163804261638|-1.146952718989722|-1.490558743476868|1.240176796913147|-1.465827345848083|-0.4429429769515991|-0.2277075052261353|-0.07386422157287598|XArbitraryZVertical|0.4894060336664466|0.5669355804824674|-0.2892794176489775|-0.5961403200704584|-0.392796128988266|0.911514937877655|0.1218684390187263|0|0|0|-1|-1|634762374.9863338|0|4.990005|99.95201|3
2021-02-11 18:52:57.071 +0000|34960.34602175|-0.7687835693359375|0.5185546875|0.121734619140625|34960.34103075|-0.5706600488736636|-1.875702659548092|-1.110695819613037|-1.083652138710022|1.525436878204346|-1.568382978439331|-0.3916437923908234|-0.2338832020759583|-0.04319882392883301|XArbitraryZVertical|0.4921068039850921|0.5696331159652316|-0.2664430695199881|-0.6019610747025742|-0.4235570430755615|0.8960078954696655|0.1333019882440567|0|0|0|-1|-1|634762374.9863338|0|4.990005|99.95201|3
2021-02-11 18:52:57.091 +0000|34960.36598275|-0.6733856201171875|0.251708984375|0.1282806396484375|34960.36099175|-0.5989420545699924|-1.868917119955816|-1.07413912719175|-1.32815682888031|1.613978385925293|-1.546675324440002|-0.2586093246936798|-0.5307915806770325|-0.005862250924110413|XArbitraryZVertical|0.4943691197650977|0.5705939486059843|-0.2425389811108821|-0.6092590593437003|-0.4554714858531952|0.8791802525520325|0.1399565637111664|0|0|0|-1|-1|634762374.9863338|0|4.990005|99.95201|3
2021-02-11 18:52:57.111 +0000|34960.38594375|-0.6283416748046875|0.305633544921875|-0.007049560546875|34960.38095375001|-0.6383697435824431|-1.870093566730836|-1.035894342362151|-1.493805885314941|1.75592029094696|-1.544981837272644|-0.1512562930583954|-0.6046422719955444|-0.03755402565002441|XArbitraryZVertical|0.4985002737302994|0.571531347468446|-0.2163624362266695|-0.6148469723773143|-0.4870951771736145|0.8603186011314392|0.1503012031316757|0|0|0|-1|-1|634762374.9863338|0|4.990005|99.95201|3
2021-02-11 18:52:57.131 +0000|34960.40590475|-0.6361541748046875|0.2303924560546875|-0.13946533203125|34960.40091475|-0.6729806918446094|-1.863658155044847|-0.9993338721800517|-1.236752510070801|1.942163586616516|-1.485441446304321|-0.1127813458442688|-0.5371556282043457|-0.2843478918075562|XArbitraryZVertical|0.5023483679227542|0.5707170080040967|-0.1902041073129727|-0.6210883617028699|-0.517833948135376|0.84111088514328|0.1561435759067535|0|0|0|-1|-1|634762374.9863338|0|4.990005|99.95201|3
2021-02-11 18:52:57.151 +0000|34960.42586575|-0.570587158203125|0.1395263671875|-0.117462158203125|34960.42087575|-0.6945781632308498|-1.839804672015962|-0.9635901853636271|-0.8956480622291565|2.193208694458008|-1.663111805915833|-0.05373561382293701|-0.6009387373924255|-0.3114197254180908|XArbitraryZVertical|0.5039343023237524|0.567338289575703|-0.1638807789485652|-0.6303337983850484|-0.5500547289848328|0.8212453126907349|0.1516450345516205|0|0|0|-1|-1|634762374.9863338|0|4.990005|99.95201|3
2021-02-11 18:52:57.171 +0000|34960.44582775|-0.70489501953125|0.214111328125|0.0078887939453125|34960.44083675|-0.7032229946410876|-1.802288964171274|-0.9221450093397339|-0.6080813407897949|2.275889158248901|-2.274819135665894|-0.03569018840789795|-0.6573728919029236|-0.1763672828674316|XArbitraryZVertical|0.5010984994922753|0.5640932663874274|-0.1360271922986362|-0.6420247045608769|-0.5879975557327271|0.7968992590904236|0.1386018395423889|0|0|0|-1|-1|634762374.9863338|0|4.990005|99.95201|3
2021-02-11 18:52:57.191 +0000|34960.46578875|-0.826263427734375|0.4170684814453125|0.0863037109375|34960.46079875|-0.7017733394897812|-1.754215054670211|-0.8689068999975657|-0.5278165340423584|2.406761407852173|-2.944250822067261|-0.1485090255737305|-0.4346593022346497|-0.07796859741210938|XArbitraryZVertical|0.492464622943206|0.5624592220935372|-0.1045615810891959|-0.6558850518522591|-0.634831428527832|0.7636235952377319|0.117763563990593|0|0|0|-1|-1|634762374.9863338|0|4.990005|99.95201|3
2021-02-11 18:52:57.222 +0000|34960.48574975001|-0.8594818115234375|0.7327117919921875|0.2004852294921875|34960.48075975|-0.7097590008421086|-1.714476253465323|-0.8032806617992628|-1.043895721435547|2.095953464508057|-3.436303377151489|-0.1510161757469177|-0.2014036774635315|0.04008995741605759|XArbitraryZVertical|0.4817299777988779|0.5636016555296107|-0.06780545029621016|-0.6676015476425484|-0.68719482421875|0.7196378707885742|0.09942119568586349|0|0|0|-1|-1|634762374.9863338|0|4.990005|99.95201|3
2021-02-11 18:52:57.235 +0000|34960.50571075|-0.808380126953125|1.266464233398438|0.0589752197265625|34960.50072075|-0.7323063667652251|-1.692443577165918|-0.729582037995105|-1.560716390609741|1.682425498962402|-3.605998992919922|-0.1378175616264343|0.3778144717216492|0.07827293127775192|XArbitraryZVertical|0.4712309972344705|0.5684810997315626|-0.02773239566030145|-0.673796333791263|-0.7399442195892334|0.6665581464767456|0.09045882523059845|0|0|0|-1|-1|634762374.9863338|0|4.990005|99.95201|3
2021-02-11 18:52:57.251 +0000|34960.52567275|-0.64410400390625|1.326629638671875|-0.08270263671875|34960.52068175|-0.7687951273567279|-1.684742644096566|-0.6564477398262881|-2.135356664657593|1.396708250045776|-3.338494062423706|0.09542357921600342|0.6559133529663086|-0.148449182510376|XArbitraryZVertical|0.4638306878922734|0.5743654310529535|0.01330991401542841|-0.6743799590520826|-0.7870281934738159|0.6103067398071289|0.09006910771131516|0|0|0|-1|-1|634762374.9863338|0|4.990005|99.95201|3
2021-02-11 18:52:57.270 +0000|34960.54563375|-0.6978302001953125|1.931045532226562|0.28021240234375|34960.54064375|-0.8143242695640764|-1.687744874194437|-0.5874692202815933|-1.954316735267639|1.057646036148071|-2.941856861114502|0.1665806174278259|0.9968607425689697|-0.03817521035671234|XArbitraryZVertical|0.4599133062475854|0.5805512232410522|0.05324676361368504|-0.6697797767181876|-0.8266607522964478|0.5542563199996948|0.09711994230747223|0|0|0|-1|-1|634762374.9863338|0|4.990005|99.95201|3
2021-02-11 18:52:57.291 +0000|34960.56559475001|-0.6643829345703125|2.046127319335938|0.630462646484375|34960.56060475|-0.8404645588213978|-1.680404353273678|-0.5336290551020518|-0.8219252228736877|1.039629340171814|-2.286272525787354|0.1696735024452209|1.539556622505188|0.3973056077957153|XArbitraryZVertical|0.45373293216766|0.5841373517966459|0.08332885935419353|-0.6678071342068178|-0.8558002710342407|0.508661150932312|0.09418004006147385|0|0|0|-1|-1|634762374.9863338|0|4.990005|99.95201|3
2021-02-11 18:52:57.310 +0000|34960.585555875|-0.7853240966796875|2.182220458984375|0.77154541015625|34960.580565875|-0.8442266175687041|-1.662714651203337|-0.4945638176181139|-0.07374537736177444|0.9104451537132263|-1.563986420631409|0.16828453540802|1.645591616630554|0.6386920213699341|XArbitraryZVertical|0.4439555647630621|0.5859169478133446|0.1027074861228644|-0.6701164936829015|-0.8764603137969971|0.4746477901935577|0.08079042285680771|0|0|0|-1|-1|634762374.9863338|0|4.990005|99.95201|3
2021-02-11 18:52:57.330 +0000|34960.605517875|-0.7913818359375|2.286148071289062|0.7766571044921875|34960.600526875|-0.8451819529581219|-1.646910285015742|-0.4727289177092642|-0.309225469827652|0.6863248348236084|-0.5854708552360535|0.08179742097854614|1.78856372833252|0.7301352024078369|XArbitraryZVertical|0.4376231297670645|0.5850953163894621|0.1143544492231011|-0.6731066958707377|-0.8877514600753784|0.4553176164627075|0.0677010640501976|0|0|0|-1|-1|634762374.9863338|0|4.990005|99.95201|3
2021-02-11 18:52:57.350 +0000|34960.625478875|-0.788055419921875|2.1859130859375|0.76904296875|34960.620488875|-0.8559467065334874|-1.642545793577833|-0.4692437215156375|-0.622032642364502|0.2422689348459244|0.2765077352523804|0.1072519421577454|1.770490169525146|0.678400993347168|XArbitraryZVertical|0.4395806751329908|0.5820124060927596|0.1201807564303479|-0.6734887336288028|-0.8896158933639526|0.4522118866443634|0.06393922120332718|0|0|0|-1|-1|634762374.9863338|0|4.990005|99.95201|3
2021-02-11 18:52:57.370 +0000|34960.645439875|-0.8079986572265625|2.078826904296875|0.82568359375|34960.64044987501|-0.8689734373164258|-1.648103896631321|-0.4818078929345664|-0.3660086989402771|-0.2378672063350677|1.032143712043762|0.1033605933189392|1.682095289230347|0.7278566360473633|XArbitraryZVertical|0.4470113076041319|0.5782734379657157|0.1188447599128942|-0.6720540816776384|-0.8835119605064392|0.4633820056915283|0.06843855977058411|0|0|0|-1|-1|634762374.9863338|0|4.990005|99.95201|3
2021-02-11 18:52:57.390 +0000|34960.665400875|-0.936187744140625|1.981796264648438|0.8997039794921875|34960.660410875|-0.8740094513353904|-1.660475226134265|-0.508253956279382|0.1596549153327942|-0.7714916467666626|1.632147073745728|-0.00648653507232666|1.548274874687195|0.7997525930404663|XArbitraryZVertical|0.4560277485260104|0.5754630872001517|0.10826217729886|-0.6701943346334808|-0.8700852990150452|0.4866526424884796|0.07823814451694489|0|0|0|-1|-1|634762374.9863338|0|4.990005|99.95201|3
2021-02-11 18:52:57.410 +0000|34960.685362875|-1.224609375|1.949203491210938|0.9250640869140625|34960.680371875|-0.8671808491418844|-1.678161255382438|-0.5459697044365155|0.7915992736816406|-1.350442409515381|2.043768405914307|-0.2255836129188538|1.461160659790039|0.8369474411010742|XArbitraryZVertical|0.4644829486418962|0.5744961533513608|0.0882822554859138|-0.6681436870261293|-0.8497031331062317|0.5192470550537109|0.09158048033714294|0|0|0|-1|-1|634762374.9863338|0|4.990005|99.95201|3
2021-02-11 18:52:57.430 +0000|34960.705323875|-1.375442504882812|1.630783081054688|0.879638671875|34960.700333875|-0.8481621648146295|-1.699845120890182|-0.5937361121678452|1.275392174720764|-1.845743536949158|2.51249361038208|-0.5252343416213989|1.284029006958008|0.7858508825302124|XArbitraryZVertical|0.4715729346106957|0.5752843622045201|0.05942758442952358|-0.6656840270263084|-0.8219640851020813|0.5594615936279297|0.1066662594676018|0|0|0|-1|-1|634762374.9863338|0|4.990005|99.95201|3
2021-02-11 18:52:57.450 +0000|34960.725284875|-1.302810668945312|1.376724243164062|0.85577392578125|34960.72029487501|-0.8264414114147709|-1.72955841832661|-0.651261248884248|1.259579658508301|-2.360410928726196|2.91035270690918|-0.5557924509048462|0.8520925641059875|0.7315628528594971|XArbitraryZVertical|0.4795989286311351|0.5769344184435421|0.02390058102373258|-0.6607272052905788|-0.7853178977966309|0.6061899662017822|0.1257369071245193|0|0|0|-1|-1|634762374.9863338|0|4.990005|99.95201|3
2021-02-11 18:52:57.470 +0000|34960.745245875|-1.132186889648438|1.295135498046875|0.9333038330078125|34960.740255875|-0.8073957156440354|-1.767912645783553|-0.7150309706476785|1.291017055511475|-2.666718482971191|3.080049514770508|-0.479153037071228|0.6947469115257263|0.721997857093811|XArbitraryZVertical|0.488607590549574|0.5789648185984599|-0.01550929294755692|-0.6525503742545751|-0.7404515147209167|0.6556407809257507|0.1478752791881561|0|0|0|-1|-1|634762374.9863338|0|4.990005|99.95201|3
2021-02-11 18:52:57.490 +0000|34960.765207875|-1.114852905273438|1.279144287109375|1.328872680664062|34960.760216875|-0.795731778736124|-1.815417223508834|-0.7795225398855583|0.8619828224182129|-2.878008127212524|3.051456689834595|-0.4203224778175354|0.5546132922172546|0.9354859590530396|XArbitraryZVertical|0.4980688179417289|0.5814255418418977|-0.05545071678248162|-0.6409345025134427|-0.6900748610496521|0.7029399275779724|0.1722564101219177|0|0|0|-1|-1|634762374.9863338|0|4.990005|99.95201|3
2021-02-11 18:52:57.510 +0000|34960.785168875|-1.2469482421875|1.298934936523438|1.44390869140625|34960.780178875|-0.8049128749728023|-1.882851850910035|-0.8398749842058091|0.4269319772720337|-3.174094438552856|2.912862539291382|-0.5264118909835815|0.497231125831604|1.250051856040955|XArbitraryZVertical|0.5099364675478592|0.5851835699108797|-0.09272859782369573|-0.6236396173044065|-0.6353159546852112|0.744559645652771|0.2049500197172165|0|0|0|-1|-1|634762374.9863338|0|4.990005|99.95201|3
2021-02-11 18:52:57.530 +0000|34960.805129875|-1.270797729492188|1.011260986328125|1.04742431640625|34960.80013987501|-0.8128122375540442|-1.954499354489339|-0.9020082786956816|1.354981780052185|-3.447314739227295|3.064820766448975|-0.6919267773628235|0.3922297954559326|1.003816962242126|XArbitraryZVertical|0.5188581414215463|0.5889341853800787|-0.1328976109123755|-0.6052114755592978|-0.5749494433403015|0.7845736742019653|0.2321144938468933|0|0|0|-1|-1|634762374.9863338|0|4.990005|99.95201|3
