loggingTime(txt)|accelerometerTimestamp_sinceReboot(s)|accelerometerAccelerationX(G)|accelerometerAccelerationY(G)|accelerometerAccelerationZ(G)|motionTimestamp_sinceReboot(s)|motionYaw(rad)|motionRoll(rad)|motionPitch(rad)|motionRotationRateX(rad/s)|motionRotationRateY(rad/s)|motionRotationRateZ(rad/s)|motionUserAccelerationX(G)|motionUserAccelerationY(G)|motionUserAccelerationZ(G)|motionAttitudeReferenceFrame(txt)|motionQuaternionX(R)|motionQuaternionY(R)|motionQuaternionZ(R)|motionQuaternionW(R)|motionGravityX(G)|motionGravityY(G)|motionGravityZ(G)|motionMagneticFieldX(µT)|motionMagneticFieldY(µT)|motionMagneticFieldZ(µT)|motionHeading(°)|motionMagneticFieldCalibrationAccuracy(Z)|label
2021-03-04 23:14:43.638 +0000|234798.740299|-0.51171875|0.645721435546875|-0.503387451171875|234798.720335|1.802944301544138|-0.80025439852608|-0.7560183465293934|-0.07973828911781311|-0.07407230883836746|0.03533979132771492|-0.02048343420028687|-0.05536890029907227|0.002606749534606934|XArbitraryZVertical|-0.07301803961849168|0.4912048147932815|-0.7605025804542673|-0.4183562903598284|-0.5220580697059631|0.6860299706459045|-0.5067723989486694|0|0|0|-1|-1|3
2021-03-04 23:14:43.640 +0000|234798.760262|-0.5082244873046875|0.669464111328125|-0.5197906494140625|234798.740299|1.801669160844802|-0.8020147476345603|-0.7580090712164352|-0.1308133006095886|-0.04500092193484306|0.005382960196584463|0.02076131105422974|-0.0308912992477417|0.004932701587677002|XArbitraryZVertical|-0.07273265955587666|0.4921980514646201|-0.7601301487732375|-0.4179152304337774|-0.5219666957855225|0.6874769926071167|-0.5049020648002625|0|0|0|-1|-1|3
2021-03-04 23:14:43.641 +0000|234798.780225|-0.511016845703125|0.679046630859375|-0.5143280029296875|234798.760262|1.799465952509659|-0.8041560464300865|-0.7595974176064886|-0.1419374942779541|-0.04922592267394066|0.0006127951201051474|0.02279365062713623|-0.02505528926849365|-0.01327121257781982|XArbitraryZVertical|-0.07249138275428479|0.4931859929486652|-0.7595591304171349|-0.4178307993285595|-0.5222595930099487|0.6886295676231384|-0.5030251741409302|0|0|0|-1|-1|3
2021-03-04 23:14:43.642 +0000|234798.800188|-0.5107879638671875|0.6870880126953125|-0.50225830078125|234798.780225|1.797714447102175|-0.8055325654760568|-0.7614982761298941|-0.107863686978817|-0.03233706206083298|-0.004780727438628674|0.009418070316314697|-0.01895564794540405|-0.01801103353500366|XArbitraryZVertical|-0.0719683570119854|0.4940865663161624|-0.7591044721878623|-0.4176833460707408|-0.5220064520835876|0.6900066733360291|-0.5013980269432068|0|0|0|-1|-1|3
2021-03-04 23:14:43.656 +0000|234798.820152|-0.503814697265625|0.6880645751953125|-0.4907684326171875|234798.800188|1.795289712007845|-0.8081230347587015|-0.7619124360364989|-0.06757616251707077|-0.03240624815225601|-0.007084272801876068|0.01374334096908569|-0.01270931959152222|-0.009018629789352417|XArbitraryZVertical|-0.07221790519394317|0.4948345539984237|-0.7584962464960388|-0.4178597855186099|-0.5230969190597534|0.6903063654899597|-0.4998466670513153|0|0|0|-1|-1|3
2021-03-04 23:14:43.676 +0000|234798.840115|-0.5027313232421875|0.6852264404296875|-0.484527587890625|234798.820152|1.794900183521645|-0.8084875142022724|-0.7622256000156939|-0.01611544005572796|-0.0379057303071022|-0.02050979994237423|0.01608848571777344|0.0002172589302062988|0.005442380905151367|XArbitraryZVertical|-0.07215846608300996|0.495014949106771|-0.7583955057424239|-0.4178393474008176|-0.5231227874755859|0.690532922744751|-0.4995067119598389|0|0|0|-1|-1|3
2021-03-04 23:14:43.695 +0000|234798.860078|-0.5143585205078125|0.6654815673828125|-0.493743896484375|234798.840115|1.794773560823501|-0.8091955475148086|-0.7615768638601907|-0.004311395809054375|-0.05237841233611107|-0.01630058512091637|0.02293068170547485|-0.009597837924957275|0.01511603593826294|XArbitraryZVertical|-0.07260532122063593|0.4949806476001699|-0.7583562132746819|-0.417873939891592|-0.5238004326820374|0.6900635361671448|-0.4994452595710754|0|0|0|-1|-1|3
2021-03-04 23:14:43.715 +0000|234798.880041|-0.524688720703125|0.69354248046875|-0.5082550048828125|234798.860078|1.794508456155272|-0.8102340113635269|-0.7612608463570306|-0.0371207557618618|-0.06332927942276001|-0.02022981271147728|0.01249855756759644|-0.003372430801391602|0.007199496030807495|XArbitraryZVertical|-0.07303568734373175|0.4951163171428233|-0.7582691327617525|-0.4177960045315884|-0.5244766473770142|0.6898348331451416|-0.4990512430667877|0|0|0|-1|-1|3
2021-03-04 23:14:43.735 +0000|234798.900005|-0.5196075439453125|0.6865081787109375|-0.4981689453125|234798.880041|1.793780728432184|-0.8118307314097772|-0.761625634486723|-0.0420721061527729|-0.06732907891273499|-0.001770911505445838|0.01172357797622681|-0.006184697151184082|-0.006873339414596558|XArbitraryZVertical|-0.07334275609713564|0.4955813359511493|-0.7580517255262581|-0.4175853503897936|-0.525090217590332|0.6900988817214966|-0.4980399608612061|0|0|0|-1|-1|3
2021-03-04 23:14:43.756 +0000|234798.919968|-0.5127105712890625|0.6845855712890625|-0.482452392578125|234798.900005|1.793160738732799|-0.8134212197483547|-0.7625609702150624|-0.06163973361253738|-0.06634552031755447|0.01717153191566467|0.0008611083030700684|0.001805722713470459|-0.00792384147644043|XArbitraryZVertical|-0.07348914187125227|0.4962046630972994|-0.7578462392649898|-0.4171923005151144|-0.5254124402999878|0.690775454044342|-0.4967605471611023|0|0|0|-1|-1|3
2021-03-04 23:14:43.775 +0000|234798.939931|-0.504241943359375|0.6643524169921875|-0.47021484375|234798.919968|1.792510094536258|-0.8150947448080338|-0.7641442900567407|-0.08053815364837646|-0.06840899586677551|0.04017955809831619|0.01006555557250977|-0.007608532905578613|0.0003788769245147705|XArbitraryZVertical|-0.07344923342286053|0.4970315023987721|-0.7576192606405023|-0.4166267287046814|-0.525446355342865|0.6919194459915161|-0.49512979388237|0|0|0|-1|-1|3
2021-03-04 23:14:43.796 +0000|234798.959894|-0.485687255859375|0.6474456787109375|-0.4620513916015625|234798.939931|1.79169298631086|-0.816878650546168|-0.7664318880691725|-0.1227287203073502|-0.06594850122928619|0.06352704763412476|0.01095235347747803|-0.01890188455581665|0.01662078499794006|XArbitraryZVertical|-0.07318082346199917|0.4980874486722885|-0.7573406904108958|-0.4159187789857086|-0.5251734852790833|0.6935692429542542|-0.4931069314479828|0|0|0|-1|-1|3
2021-03-04 23:14:43.815 +0000|234798.979858|-0.4768829345703125|0.6150054931640625|-0.4447784423828125|234798.959894|1.790086281209244|-0.8191825604066414|-0.7692485545549009|-0.1837755292654037|-0.07776899635791779|0.07516062259674072|0.03162330389022827|-0.04225993156433105|0.02321368455886841|XArbitraryZVertical|-0.07273948713075637|0.4994287125414151|-0.7568697272939149|-0.4152447169947363|-0.5248789191246033|0.6955955624580383|-0.490559846162796|0|0|0|-1|-1|3
2021-03-04 23:14:43.836 +0000|234798.999821|-0.425567626953125|0.6422119140625|-0.4328460693359375|234798.979858|1.78706055543468|-0.8227047895205902|-0.7732580756646318|-0.279131144285202|-0.08269291371107101|0.07037287950515747|0.03731131553649902|-0.06942689418792725|0.03500950336456299|XArbitraryZVertical|-0.07201358830412086|0.5014085512552242|-0.7560395548742547|-0.4144971122203779|-0.5245550274848938|0.6984705328941345|-0.4868070185184479|0|0|0|-1|-1|3
2021-03-04 23:14:43.856 +0000|234799.019784|-0.470794677734375|0.5667724609375|-0.393280029296875|234798.999821|1.782839585550894|-0.8275094990944416|-0.7761409109678609|-0.1124545633792877|-0.1380524039268494|-0.0885317325592041|0.06347388029098511|-0.09410059452056885|0.04576736688613892|XArbitraryZVertical|-0.07183112116294732|0.5033707307419722|-0.7549397285110866|-0.414154854396463|-0.5254032015800476|0.7005307078361511|-0.482916384935379|0|0|0|-1|-1|3
2021-03-04 23:14:43.876 +0000|234799.039747|-0.4474334716796875|0.5340423583984375|-0.3866729736328125|234799.019784|1.777801489111588|-0.8345523303346546|-0.7771027752204225|-0.2476994395256042|-0.1536616235971451|-0.08578050136566162|0.1069049835205078|-0.06454372406005859|0.07158595323562622|XArbitraryZVertical|-0.0729034176353566|0.5052814694485237|-0.7536253670759305|-0.4140345789320861|-0.5282917022705078|0.7012168169021606|-0.4787514507770538|0|0|0|-1|-1|3
2021-03-04 23:14:43.908 +0000|234799.059711|-0.4340362548828125|0.4897308349609375|-0.403961181640625|234799.039747|1.770408741474168|-0.8421837703319121|-0.7798484450940029|-0.3753188848495483|-0.1165673062205315|-0.06381981819868088|0.0647779107093811|-0.1633003950119019|0.08084410429000854|XArbitraryZVertical|-0.07300569262114368|0.5078967030974317|-0.7517739586298339|-0.4141825059410311|-0.5304914116859436|0.7031716704368591|-0.4734222292900085|0|0|0|-1|-1|3
2021-03-04 23:14:43.920 +0000|234799.079674|-0.51416015625|0.3985443115234375|-0.432342529296875|234799.059711|1.759379866888663|-0.8530125866324187|-0.784320120935147|-0.4977225959300995|-0.2065882235765457|-0.1224461048841476|0.1107275485992432|-0.2012323141098022|0.08198648691177368|XArbitraryZVertical|-0.07278965994723788|0.5117744473366113|-0.7490346695182534|-0.4144100191801126|-0.5332129001617432|0.7063440680503845|-0.4655771553516388|0|0|0|-1|-1|3
2021-03-04 23:14:43.935 +0000|234799.099637|-0.5641632080078125|0.23773193359375|-0.4564666748046875|234799.079674|1.743004955175914|-0.86825084237181|-0.7893638303952369|-0.7258954644203186|-0.1523092240095139|-0.2564519345760345|0.05940067768096924|-0.2331749796867371|0.04545301198959351|XArbitraryZVertical|-0.07260459311805778|0.5168978071197698|-0.745031762010104|-0.4152988243441071|-0.5375195741653442|0.7099053859710693|-0.4550904631614685|0|0|0|-1|-1|3
2021-03-04 23:14:43.956 +0000|234799.1196|-0.57818603515625|0.1442108154296875|-0.4263458251953125|234799.099637|1.716105931201986|-0.8893378682724421|-0.7959127343980777|-1.161188960075378|-0.01776397600769997|-0.4498492777347565|0.005027949810028076|-0.3925877809524536|-0.00209277868270874|XArbitraryZVertical|-0.07124363396541303|0.5239901911148841|-0.7386320735021431|-0.4180685200472728|-0.5433732867240906|0.7145024538040161|-0.4407172501087189|0|0|0|-1|-1|3
2021-03-04 23:14:43.975 +0000|234799.139564|-0.5555877685546875|0.134185791015625|-0.358306884765625|234799.1196|1.674371802759549|-0.9176722223020533|-0.8050450452440516|-1.657819032669067|0.1986186653375626|-0.6230342388153076|-0.02398133277893066|-0.5470641851425171|-0.02633088827133179|XArbitraryZVertical|-0.06751706832731136|0.5337224495912245|-0.7288829096610943|-0.4234520381518974|-0.5504357814788818|0.7208618521690369|-0.4211635887622833|0|0|0|-1|-1|3
2021-03-04 23:14:43.995 +0000|234799.159527|-0.5769195556640625|0.126495361328125|-0.305084228515625|234799.139564|1.618439092006858|-0.9519589091936829|-0.8158970459336822|-2.065312147140503|0.425513744354248|-0.7934693694114685|-0.007544517517089844|-0.5901874303817749|0.005212724208831787|XArbitraryZVertical|-0.06107771604843845|0.5454600883832903|-0.7159511975221462|-0.4314588788988751|-0.5581445097923279|0.7283405661582947|-0.397485613822937|0|0|0|-1|-1|3
2021-03-04 23:14:44.015 +0000|234799.17949|-0.52587890625|0.2901458740234375|-0.3714599609375|234799.159527|1.550226342529|-0.9895717990209794|-0.8270792456986463|-2.39306902885437|0.8493924736976624|-0.930026113986969|0.004498541355133057|-0.6247356534004211|0.03900304436683655|XArbitraryZVertical|-0.05164934630264964|0.558096658669297|-0.7002639529216999|-0.4421436846032861|-0.5658541917800903|0.7359570860862732|-0.371720939874649|0|0|0|-1|-1|3
2021-03-04 23:14:44.035 +0000|234799.199453|-0.4722900390625|0.51251220703125|-0.36065673828125|234799.17949|1.473425255743623|-1.024161744621353|-0.8344175270589106|-2.37549901008606|1.299638986587524|-1.192837357521057|0.02064114809036255|-0.5586239099502563|0.02553495764732361|XArbitraryZVertical|-0.03933376091217269|0.56911902264984|-0.6825004255581765|-0.4568913105535374|-0.5737416744232178|0.7409054636955261|-0.3491127789020538|0|0|0|-1|-1|3
2021-03-04 23:14:44.055 +0000|234799.219417|-0.3740386962890625|0.6428070068359375|-0.3420257568359375|234799.199453|1.396439058729794|-1.051916705484734|-0.8347069599583878|-2.066624402999878|1.666480660438538|-1.444097280502319|0.08514374494552612|-0.3470415472984314|-0.04913020133972168|XArbitraryZVertical|-0.02651473842734003|0.5769073334526565|-0.6641248302495494|-0.4747769226753524|-0.5830227732658386|0.7410997748374939|-0.3329497873783112|0|0|0|-1|-1|3
2021-03-04 23:14:44.075 +0000|234799.23938|-0.402008056640625|0.664093017578125|-0.3720855712890625|234799.219417|1.326972174359308|-1.067815495087194|-0.8252133019903996|-1.531065344810486|1.826326131820679|-1.669188618659973|0.1760451793670654|-0.1382111310958862|-0.02054899930953979|XArbitraryZVertical|-0.015155517921734|0.5798814364459206|-0.6464380489060809|-0.4956064760298796|-0.5943801999092102|0.7346925139427185|-0.3270156681537628|0|0|0|-1|-1|3
2021-03-04 23:14:44.095 +0000|234799.259343|-0.4935760498046875|0.692413330078125|-0.3392486572265625|234799.259343|1.222805960187889|-1.06887426546849|-0.7849228364819014|-0.792756199836731|1.978557825088501|-1.76643168926239|0.1579518914222717|-0.04620236158370972|-0.02913269400596619|XArbitraryZVertical|-0.000642848103280913|0.5742997476926129|-0.6159361227101617|-0.5392605945856996|-0.6201863288879395|0.7067705988883972|-0.3403587639331818|0|0|0|-1|-1|3
2021-03-04 23:14:44.115 +0000|234799.279306|-0.453521728515625|0.76904296875|-0.296722412109375||||||||||||||||||||||||3
2021-03-04 23:14:44.135 +0000|234799.29927|-0.3986968994140625|0.7562255859375|-0.2581634521484375|234799.279306|1.181910289545669|-1.056148388927554|-0.7611486722530453|-0.6198816895484924|2.140861511230469|-1.720982670783997|0.1545937061309814|0.05055713653564453|0.05596494674682617|XArbitraryZVertical|0.005792273596457148|0.5672467432199613|-0.6022482126073802|-0.5616891978204576|-0.6302559375762939|0.6897535920143127|-0.3563951551914215|0|0|0|-1|-1|3
2021-03-04 23:14:44.155 +0000|234799.319233|-0.3817291259765625|0.681243896484375|-0.175994873046875|234799.29927|1.14425534167208|-1.037757248241425|-0.7388768726002587|-0.7080408930778503|2.229941606521606|-1.573225617408752|0.2097904086112976|0.1100960373878479|0.09696853160858154|XArbitraryZVertical|0.0132491671732107|0.5585737132673324|-0.5889878898593585|-0.5838777122053505|-0.6366702914237976|0.6734580993652344|-0.3756397366523743|0|0|0|-1|-1|3
2021-03-04 23:14:44.175 +0000|234799.339196|-0.4135284423828125|0.671295166015625|-0.0872650146484375|234799.319233|1.102871667972301|-1.022773616274148|-0.7228600324049773|-1.179503560066223|2.025036573410034|-1.388140082359314|0.2586876153945923|0.05312854051589966|0.1613370180130005|XArbitraryZVertical|0.0228341997219936|0.5514753544246612|-0.574768845365482|-0.6041476358392786|-0.6400963068008423|0.6615321636199951|-0.3907070755958557|0|0|0|-1|-1|3
2021-03-04 23:14:44.195 +0000|234799.359159|-0.6127166748046875|0.9415283203125|-0.23834228515625|234799.339196|1.052099400217286|-1.01883953020638|-0.7155469032778797|-1.7041836977005|1.718875885009766|-1.223821043968201|0.2529319524765015|0.009436130523681641|0.2537350058555603|XArbitraryZVertical|0.03502600532967662|0.548542555468663|-0.5582953862598263|-0.621434351651636|-0.642656683921814|0.6560302972793579|-0.395748496055603|0|0|0|-1|-1|3
2021-03-04 23:14:44.215 +0000|234799.379123|-0.862396240234375|1.253189086914062|-0.2943115234375|234799.359159|0.9983630594890496|-1.02395478034896|-0.7138057968720599|-1.562203764915466|1.404274463653564|-1.066801428794861|0.1724110841751099|0.08820474147796631|0.2442608773708344|XArbitraryZVertical|0.04766937036802088|0.5488196502642101|-0.5413008880464022|-0.6352306114790682|-0.6456471681594849|0.6547152400016785|-0.3930492401123047|0|0|0|-1|-1|3
2021-03-04 23:14:44.234 +0000|234799.399086|-0.8721160888671875|1.044464111328125|-0.35968017578125|234799.379123|0.9567191265855221|-1.026451858499129|-0.7083862922782874|-0.7591378688812256|1.126747131347656|-1.024522066116333|-0.1140956282615662|0.5366772413253784|0.1143979728221893|XArbitraryZVertical|0.05624872128675608|0.5479072159093282|-0.5273021289095973|-0.646982402267458|-0.6496525406837463|0.6506091356277466|-0.3932675421237946|0|0|0|-1|-1|3
2021-03-04 23:14:44.255 +0000|234799.419049|-0.8059234619140625|1.073150634765625|-0.3920745849609375|234799.399086|0.9355188032465765|-1.016839618146855|-0.6961536134263087|-0.1360946297645569|1.144161224365234|-0.83493572473526|-0.2352703213691711|0.5022531151771545|0.08118671178817749|XArbitraryZVertical|0.0596142103118676|0.5427898792458979|-0.5184434513766576|-0.6580589856803052|-0.6525623202323914|0.6412710547447205|-0.4036505818367004|0|0|0|-1|-1|3
2021-03-04 23:14:44.275 +0000|234799.439012|-0.865966796875|1.037002563476562|-0.520843505859375|234799.419049|0.9217488337016836|-1.002723557980996|-0.6875289481507431|-0.3558122217655182|1.127589344978333|-0.4382928311824799|-0.1749327182769775|0.4092243313789368|0.04847240447998047|XArbitraryZVertical|0.06347646224404183|0.5367306465184423|-0.5122643857935857|-0.6674400159179754|-0.6514375805854797|0.6346294283866882|-0.4157819151878357|0|0|0|-1|-1|3
2021-03-04 23:14:44.295 +0000|234799.458976|-0.8808441162109375|0.994140625|-0.53375244140625|234799.439012|0.9064474540562071|-0.9914922345419468|-0.6896036193408358|-0.795686662197113|0.9799289703369141|-0.03487648814916611|-0.1640229821205139|0.4300069808959961|-0.02935552597045898|XArbitraryZVertical|0.07127292878294578|0.5326771869068904|-0.5070382861975804|-0.6738601245183738|-0.6456236243247986|0.6362314224243164|-0.4223503768444061|0|0|0|-1|-1|3
2021-03-04 23:14:44.315 +0000|234799.478939|-0.828765869140625|1.055892944335938|-0.5918426513671875|234799.458976|0.8908204441203657|-0.9814835563969945|-0.7017080407727981|-0.7552482485771179|0.9768400192260742|0.3441348373889923|-0.2563202381134033|0.3325957655906677|-0.09528073668479919|XArbitraryZVertical|0.08289028456166338|0.5299901355092745|-0.5030098952926915|-0.6776582079472822|-0.6349150538444519|0.6455231308937073|-0.4244793057441711|0|0|0|-1|-1|3
2021-03-04 23:14:44.334 +0000|234799.498902|-0.7793121337890625|0.93328857421875|-0.5779571533203125|234799.478939|0.887965528146949|-0.964265394087099|-0.7143702786870658|-0.04811050742864609|0.9510515928268433|0.5321990251541138|-0.2310447096824646|0.3925877809524536|-0.121317446231842|XArbitraryZVertical|0.09315430535487772|0.5253525278801663|-0.5029545538101324|-0.6799733809432164|-0.6207467317581177|0.6551417708396912|-0.430653989315033|0|0|0|-1|-1|3
2021-03-04 23:14:44.354 +0000|234799.518865|-0.7602386474609375|0.7664337158203125|-0.6259613037109375|234799.498902|0.9026365227688923|-0.9363053255366319|-0.7205696761408343|0.4520979821681976|0.8458606004714966|0.6253588795661926|-0.1981629133224487|0.3321610689163208|-0.139690101146698|XArbitraryZVertical|0.09893492930370337|0.5172042054672538|-0.5073859096302301|-0.6821079227433907|-0.6051818132400513|0.659812867641449|-0.4454233646392822|0|0|0|-1|-1|3
2021-03-04 23:14:44.374 +0000|234799.538829|-0.727081298828125|0.679656982421875|-0.5482330322265625|234799.518865|0.9252094273002106|-0.9052633022585919|-0.7238057140571004|0.6665207147598267|0.7763779163360596|0.6423357725143433|-0.1716490387916565|0.1909846663475037|-0.1635648906230927|XArbitraryZVertical|0.1024036779057247|0.5081121932003895|-0.513908144992816|-0.683545069708678|-0.5893830060958862|0.6622410416603088|-0.4626709818840027|0|0|0|-1|-1|3
2021-03-04 23:14:44.409 +0000|234799.558792|-0.6940155029296875|0.5941314697265625|-0.4822998046875|234799.538829|0.9494007214245606|-0.8755144962569975|-0.7242247576672982|0.7081911563873291|0.6236025094985962|0.5308765769004822|-0.1749443411827087|0.05854487419128418|-0.1126641631126404|XArbitraryZVertical|0.1041781572994519|0.499236695419758|-0.5206920736274797|-0.6846818871205458|-0.5751471519470215|0.6625549793243408|-0.479819267988205|0|0|0|-1|-1|3
2021-03-04 23:14:44.423 +0000|234799.578755|-0.6307525634765625|0.6003265380859375|-0.4782562255859375|234799.578755|0.9897041095841781|-0.8310490194616631|-0.7181025866864114|0.6157637238502502|0.1964790672063828|0.2389313578605652|-0.1067277193069458|-0.07232463359832764|0.05344265699386597|XArbitraryZVertical|0.1034406425983039|0.4852650584992967|-0.5316106896796982|-0.6864459232728545|-0.5562361478805542|0.6579570174217224|-0.5076357126235962|0|0|0|-1|-1|3
2021-03-04 23:14:44.435 +0000|234799.598718|-0.6807403564453125|0.4969329833984375|-0.501708984375||||||||||||||||||||||||3
2021-03-04 23:14:44.455 +0000|234799.618682|-0.6912994384765625|0.5032501220703125|-0.464385986328125|234799.598718|1.004332804539349|-0.8206516950847245|-0.7121240086293538|0.6207212805747986|-0.06537634134292603|0.04180799052119255|-0.08685946464538574|-0.07069462537765503|0.009151875972747803|XArbitraryZVertical|0.1002251608269037|0.4815837441470033|-0.5355734650271672|-0.6864350049019565|-0.5537959933280945|0.6534430384635925|-0.5160640478134155|0|0|0|-1|-1|3
2021-03-04 23:14:44.475 +0000|234799.638645|-0.70068359375|0.564605712890625|-0.424102783203125|234799.618682|1.014270214352972|-0.8176549875912349|-0.70444777205534|0.3673323392868042|-0.2581266164779663|-0.03419027850031853|-0.1309232115745544|-0.1887965202331543|0.05992454290390015|XArbitraryZVertical|0.09549411716581599|0.4799088768788695|-0.5381724733494931|-0.6862498808810484|-0.5558902025222778|0.6476131677627563|-0.5211367011070251|0|0|0|-1|-1|3
2021-03-04 23:14:44.494 +0000|234799.658608|-0.7109222412109375|0.60980224609375|-0.4451141357421875|234799.638645|1.015736520578586|-0.8212872590367313|-0.6999947356272805|-0.04059132561087608|-0.1810014247894287|-0.1613471657037735|-0.131292462348938|-0.07762426137924194|0.06744515895843506|XArbitraryZVertical|0.09234016775972134|0.4805585067165322|-0.5384595704919477|-0.6860016049484045|-0.5598849058151245|0.6442136764526367|-0.5210736393928528|0|0|0|-1|-1|3
2021-03-04 23:14:44.514 +0000|234799.67857075|-0.69732666015625|0.7595062255859375|-0.54132080078125|234799.658608|1.009340302766656|-0.827538161152833|-0.7008296587687983|-0.3502448201179504|-0.0361771285533905|-0.1124167293310165|-0.1450745463371277|-0.0781099796295166|0.09121996164321899|XArbitraryZVertical|0.09254218666005676|0.4825309929037563|-0.5366282763171131|-0.6860248178343421|-0.5627349615097046|0.6448520421981812|-0.5171995759010315|0|0|0|-1|-1|3
2021-03-04 23:14:44.534 +0000|234799.69853475|-0.7014923095703125|0.700714111328125|-0.534942626953125|234799.67857075|0.9995247337034888|-0.8339913275909581|-0.7054884625858158|-0.4709646105766296|0.006896681152284145|-0.05266258865594864|-0.1384561657905579|0.04588437080383301|0.02518981695175171|XArbitraryZVertical|0.09509874742487671|0.4849635819810861|-0.5339843990896724|-0.6860226905391997|-0.5638295412063599|0.6484057903289795|-0.5115330815315247|0|0|0|-1|-1|3
2021-03-04 23:14:44.554 +0000|234799.71849775|-0.6874237060546875|0.70147705078125|-0.5396881103515625|234799.69853475|0.9878288422710495|-0.8426551365006302|-0.7076908263840521|-0.4980356395244598|0.07097888737916946|-0.02045733667910099|-0.1339073777198792|0.110127329826355|-0.04690420627593994|XArbitraryZVertical|0.09654052197520084|0.4876895979367745|-0.5305899055153946|-0.686522547060911|-0.5671729445457458|0.6500808596611023|-0.5056775808334351|0|0|0|-1|-1|3
2021-03-04 23:14:44.574 +0000|234799.73846075|-0.66741943359375|0.7893218994140625|-0.538299560546875|234799.71849775|0.9744768213251941|-0.8513696484619188|-0.7139516316137819|-0.7543162107467651|0.09309057891368866|0.1759402304887772|-0.1277883052825928|0.02506047487258911|-0.02414694428443909|XArbitraryZVertical|0.100073726995228|0.4908902602994559|-0.5270311191936601|-0.6864766518861006|-0.5684854388237|0.6548254489898682|-0.4980240166187286|0|0|0|-1|-1|3
2021-03-04 23:14:44.594 +0000|234799.75842375|-0.5757293701171875|0.769317626953125|-0.4972076416015625|234799.73846075|0.9597663940173305|-0.860678962560211|-0.7236743684489979|-0.7498073577880859|0.154430478811264|0.1600857228040695|-0.1140545010566711|0.08706390857696533|-0.07283428311347961|XArbitraryZVertical|0.1052488957360661|0.4946255494019589|-0.5234113021243876|-0.6857906635420545|-0.5682422518730164|0.6621426343917847|-0.4885364770889282|0|0|0|-1|-1|3
2021-03-04 23:14:44.614 +0000|234799.77838775|-0.575592041015625|0.798248291015625|-0.510711669921875|234799.75842375|0.9469835193124936|-0.8662003480108423|-0.7373347560596072|-0.8356620669364929|0.103066623210907|0.2723483443260193|-0.05886185169219971|0.1317903399467468|-0.02687516808509827|XArbitraryZVertical|0.1125952116711161|0.4975726031322155|-0.5206879022832942|-0.6845639703178654|-0.563986599445343|0.6723173260688782|-0.4794876575469971|0|0|0|-1|-1|3
2021-03-04 23:14:44.634 +0000|234799.79835075|-0.5903167724609375|0.7664947509765625|-0.474212646484375|234799.77838775|0.9361139358132781|-0.8727919662381821|-0.7498530366941394|-0.5737734436988831|-0.03737219423055649|0.1883418560028076|-0.01102769374847412|0.07466393709182739|-0.0406574010848999|XArbitraryZVertical|0.1187435129723273|0.5007426365183674|-0.5186069083928937|-0.6827911518618949|-0.5606428980827332|0.6815312504768372|-0.4703135788440704|0|0|0|-1|-1|3
2021-03-04 23:14:44.654 +0000|234799.81831375|-0.59130859375|0.741424560546875|-0.4974365234375|234799.79835075|0.9299568412946919|-0.8779055436580193|-0.7587224472400396|-0.3580228686332703|0.03102486580610275|0.1867832839488983|-0.01511877775192261|0.1325465440750122|-0.02131751179695129|XArbitraryZVertical|0.1226106551775892|0.5031760437382108|-0.5177116587050316|-0.680995702279847|-0.5583674907684326|0.6879948377609253|-0.4635609984397888|0|0|0|-1|-1|3
2021-03-04 23:14:44.674 +0000|234799.83827675|-0.617919921875|0.8887176513671875|-0.58221435546875|234799.81831375|0.9237698283856883|-0.8797353538458806|-0.7684986797548569|-0.6240127682685852|0.1886194944381714|0.3261984586715698|-0.04162144660949707|0.01548421382904053|-0.01016926765441895|XArbitraryZVertical|0.127714772500531|0.5045533456806832|-0.5167106528942181|-0.6797978806428717|-0.5540054440498352|0.6950566172599792|-0.4582297205924988|0|0|0|-1|-1|3
2021-03-04 23:14:44.694 +0000|234799.85824075|-0.579620361328125|0.861236572265625|-0.55224609375|234799.83827675|0.9158373494851392|-0.8804822256992366|-0.7837850735792532|-0.7605161070823669|0.2634472250938416|0.4843624234199524|-0.06523740291595459|0.1234720945358276|-0.1014018058776855|XArbitraryZVertical|0.1358086915284917|0.5060213397252886|-0.515606494095763|-0.6779737550898056|-0.5460906624794006|0.7059652209281921|-0.4509968161582947|0|0|0|-1|-1|3
2021-03-04 23:14:44.714 +0000|234799.87820375|-0.492919921875|0.79632568359375|-0.4899444580078125|234799.85824075|0.907219499915919|-0.8814020988176146|-0.8013632330608512|-0.8413828611373901|0.2487246990203857|0.4916712939739227|-0.07089656591415405|0.188265323638916|-0.140979528427124|XArbitraryZVertical|0.1449778026875486|0.5076569378353816|-0.5145080315593363|-0.6756829336573988|-0.5368457436561584|0.7183051705360413|-0.4425317347049713|0|0|0|-1|-1|3
2021-03-04 23:14:44.734 +0000|234799.89816675|-0.4910430908203125|0.8023834228515625|-0.4448699951171875|234799.87820375|0.8958290808936381|-0.8860431566423411|-0.8204284350585754|-0.8505557775497437|0.06508888304233551|0.4716910123825073|-0.008859395980834961|0.0872417688369751|-0.08706188201904297|XArbitraryZVertical|0.1545126455078861|0.5103711060717252|-0.51290677386456|-0.6727360548268446|-0.528188943862915|0.7314380407333374|-0.4312943518161774|0|0|0|-1|-1|3
2021-03-04 23:14:44.754 +0000|234799.91812975|-0.4789276123046875|0.8349609375|-0.4659423828125|234799.89816675|0.8874318814558276|-0.8918965757232589|-0.8356223901834177|-0.5149569511413574|-0.02898339554667473|0.3542053997516632|0.03800082206726074|0.0651860237121582|-0.01178514957427979|XArbitraryZVertical|0.1613937891276985|0.5131941434684241|-0.5120596245214153|-0.6696109648018499|-0.5219943523406982|0.7417141199111938|-0.4211676418781281|0|0|0|-1|-1|3
2021-03-04 23:14:44.774 +0000|234799.93809375|-0.495574951171875|0.7285308837890625|-0.45263671875|234799.91812975|0.8872799968427753|-0.8932941391814345|-0.8433810987711687|0.06607484817504883|-0.1190867647528648|0.2387005537748337|0.02978646755218506|0.09558796882629395|-0.02387130260467529|XArbitraryZVertical|0.1642538116662022|0.5144043461107094|-0.5128915064290324|-0.6673463918261442|-0.5180829763412476|0.7468956112861633|-0.41681769490242|0|0|0|-1|-1|3
2021-03-04 23:14:44.794 +0000|234799.95805675|-0.4888916015625|0.7118377685546875|-0.4337310791015625|234799.93809375|0.8955434209029262|-0.8894287518812122|-0.8442141234163607|0.1960762590169907|-0.1054487153887749|0.1949264407157898|0.02558231353759766|0.04103344678878784|-0.05963259935379028|XArbitraryZVertical|0.1634643245468428|0.5138743176264526|-0.5154107613561425|-0.6660063729713297|-0.5159845948219299|0.7474492788314819|-0.4184252023696899|0|0|0|-1|-1|3
2021-03-04 23:14:44.814 +0000|234799.97801975|-0.5211639404296875|0.7328948974609375|-0.4237060546875|234799.95805675|0.9012254322751905|-0.8870487122718425|-0.8464111250473372|-0.03625612705945969|-0.08571186661720276|0.2157911509275436|0.03028398752212524|-0.05002385377883911|-0.0236470103263855|XArbitraryZVertical|0.1635180034165431|0.5137655310075159|-0.5173174208659084|-0.6645973274855066|-0.513713002204895|0.7489069700241089|-0.4186136722564697|0|0|0|-1|-1|3
2021-03-04 23:14:44.834 +0000|234799.99798275|-0.5214996337890625|0.6717376708984375|-0.4880218505859375|234799.97801975|0.9029207175691076|-0.8877013514182065|-0.8504379806311229|-0.1382377743721008|-0.1030500084161758|0.1535050570964813|0.006653249263763428|-0.02027660608291626|-0.02982598543167114|XArbitraryZVertical|0.1645598509113343|0.5145234148852135|-0.5183162588106878|-0.6629736498662465|-0.5116428136825562|0.751569390296936|-0.4163714349269867|0|0|0|-1|-1|3
2021-03-04 23:14:44.854 +0000|234800.01794675|-0.5438995361328125|0.78460693359375|-0.475982666015625|234799.99798275|0.8994022879547462|-0.8918215221620986|-0.8555750252977886|-0.3713605999946594|-0.07281626015901566|0.1017578765749931|-0.01851171255111694|-0.04033315181732178|-0.02258789539337158|XArbitraryZVertical|0.1664982442367988|0.5161041051738068|-0.5179804432106137|-0.661521892723398|-0.5103426575660706|0.7549481391906738|-0.4118297696113586|0|0|0|-1|-1|3
2021-03-04 23:14:44.874 +0000|234800.03790975|-0.518829345703125|0.7545166015625|-0.37249755859375|234800.01794675|0.8950524576269977|-0.8968446033288022|-0.86061946308933|-0.1214268207550049|-0.09435723721981049|0.1066216975450516|-0.0266948938369751|-0.03765022754669189|-0.0937311053276062|XArbitraryZVertical|0.1683826310376527|0.5178877245471507|-0.5174471396826348|-0.6600666990909287|-0.5094226598739624|0.7582466006278992|-0.406879186630249|0|0|0|-1|-1|3
2021-03-04 23:14:44.926 +0000|234800.05787275|-0.5147705078125|0.7566375732421875|-0.3472747802734375|234800.05787275|0.9028426470948424|-0.8933811407129643|-0.8611845163993708|0.08502896875143051|-0.09622225165367126|0.1117512062191963|0.0003217458724975586|-0.004479765892028809|0.05677947402000427|XArbitraryZVertical|0.1674949711865556|0.5174545513438852|-0.5197788069673948|-0.658798988592139|-0.5076764225959778|0.7586148381233215|-0.4083724319934845|0|0|0|-1|-1|3
2021-03-04 23:14:44.928 +0000|234800.07783575|-0.50433349609375|0.755584716796875|-0.3594207763671875||||||||||||||||||||||||3
2021-03-04 23:14:44.934 +0000|234800.09779975|-0.522796630859375|0.6977081298828125|-0.38055419921875|234800.07783575|0.905987002679868|-0.8928412639792552|-0.8618825020615005|-0.03016005456447601|-0.1082329899072647|0.1293179541826248|-0.01154178380966187|0.01151466369628906|0.06348106265068054|XArbitraryZVertical|0.1671065535734537|0.5176081980819344|-0.5208344465268073|-0.657942704187174|-0.5070433616638184|0.7590694427490234|-0.4083143174648285|0|0|0|-1|-1|3
2021-03-04 23:14:44.954 +0000|234800.11776275|-0.5340423583984375|0.7176971435546875|-0.3972930908203125|234800.09779975|0.9070544195490535|-0.8938016692654569|-0.8629226642384762|-0.1373606026172638|-0.1496171355247498|0.117563471198082|-0.01559549570083618|-0.0298876166343689|0.03524684906005859|XArbitraryZVertical|0.1670041884636952|0.51811523096737|-0.5213631714980402|-0.6571505214572907|-0.5068197250366211|0.7597461938858032|-0.4073324203491211|0|0|0|-1|-1|3
2021-03-04 23:14:44.974 +0000|234800.13772575|-0.5825653076171875|0.7513427734375|-0.392242431640625|234800.11776275|0.9040819912213304|-0.8983346961572821|-0.8658285765437524|-0.1635118424892426|-0.1280927658081055|0.06486795097589493|-0.053538978099823|-0.03041595220565796|0.01278471946716309|XArbitraryZVertical|0.1677786506146449|0.5196377922383222|-0.5210407883594419|-0.6560056348927693|-0.5069316029548645|0.7616324424743652|-0.4036537706851959|0|0|0|-1|-1|3
2021-03-04 23:14:44.994 +0000|234800.15768875|-0.5497894287109375|0.748779296875|-0.4056396484375|234800.13772575|0.9016623279494532|-0.903076348354421|-0.8675588870641453|0.003199084661900997|-0.1179996058344841|-0.008709333837032318|-0.05872398614883423|-0.02662277221679688|0.01195549964904785|XArbitraryZVertical|0.1678782921986072|0.521154874103013|-0.5208105032236282|-0.654958718830254|-0.507804274559021|0.7627525925636292|-0.4004289507865906|0|0|0|-1|-1|3
2021-03-04 23:14:45.013 +0000|234800.17765275|-0.6084747314453125|0.81744384765625|-0.45635986328125|234800.15768875|0.9008545914172842|-0.9064821837023509|-0.8671071420095829|0.02411180734634399|-0.1207900196313858|-0.0395018681883812|-0.05733609199523926|-0.02016603946685791|0.01853850483894348|XArbitraryZVertical|0.1670180675406899|0.5221591894370984|-0.5207878022268508|-0.6543964963420288|-0.5094363689422607|0.7624603509902954|-0.3989094793796539|0|0|0|-1|-1|3
2021-03-04 23:14:45.033 +0000|234800.19761575|-0.6230621337890625|0.9202117919921875|-0.438323974609375|234800.17765275|0.8994455345575862|-0.9101059969900646|-0.8667397602215017|-0.004520770162343979|-0.1113262549042702|-0.03409929201006889|-0.07392221689224243|-0.005829215049743652|-0.02363520860671997|XArbitraryZVertical|0.1662932468359575|0.5231923573936802|-0.5205932198913982|-0.6539105036642811|-0.5110996961593628|0.7622225880622864|-0.3972326219081879|0|0|0|-1|-1|3
2021-03-04 23:14:45.053 +0000|234800.21757875|-0.5977630615234375|0.867462158203125|-0.267486572265625|234800.19761575|0.9046489611396341|-0.9069308466769236|-0.8619418853990527|0.4908694922924042|0.09651710838079453|-0.05616091936826706|-0.0944979190826416|0.1086744666099548|-0.08421877026557922|XArbitraryZVertical|0.163806782178115|0.5221266652262831|-0.5215666822557885|-0.654613759457663|-0.5127102732658386|0.7591080665588379|-0.4011021554470062|0|0|0|-1|-1|3
2021-03-04 23:14:45.073 +0000|234800.23754175|-0.547149658203125|0.968414306640625|-0.197021484375|234800.21757875|0.9226423512992091|-0.8892777736392107|-0.8486841715088091|1.347771286964417|0.3895289897918701|-0.2010247111320496|-0.0695185661315918|0.1480719447135925|0.03420719504356384|XArbitraryZVertical|0.1583494658056223|0.5164576052136125|-0.5247914975997336|-0.6578683709007433|-0.5133213400840759|0.750411331653595|-0.4163939654827118|0|0|0|-1|-1|3
2021-03-04 23:14:45.093 +0000|234800.25750575|-0.61529541015625|0.7745361328125|-0.468780517578125|234800.23754175|0.9602600480265856|-0.854236716328675|-0.8234242509380928|2.160266160964966|0.243821308016777|0.00975356251001358|-0.07247048616409302|0.1895265579223633|0.2787074446678162|XArbitraryZVertical|0.1476959035689703|0.5049454777250055|-0.5323003590375055|-0.6632286757545692|-0.512551486492157|0.7334776520729065|-0.446431964635849|0|0|0|-1|-1|3
2021-03-04 23:14:45.113 +0000|234800.27746875|-0.499786376953125|0.7980499267578125|-0.5382080078125|234800.25750575|1.014470080257031|-0.8114919383443636|-0.7929975651843404|2.562197208404541|0.156710296869278|0.2084517478942871|-0.08960878849029541|0.207080602645874|0.08269584178924561|XArbitraryZVertical|0.1333010038643996|0.4906070232517734|-0.544934903169517|-0.6667696172472767|-0.5089629888534546|0.712459921836853|-0.4830711781978607|0|0|0|-1|-1|3
2021-03-04 23:14:45.133 +0000|234800.29743175|-0.39483642578125|0.594635009765625|-0.5833282470703125|234800.27746875|1.070209976757419|-0.769639188834069|-0.7618099046513568|2.420689105987549|0.161904901266098|0.3229991793632507|-0.02860736846923828|0.05459517240524292|0.00946044921875|XArbitraryZVertical|0.118701942310825|0.4754820968838791|-0.5588116193669999|-0.6689964625758935|-0.5035276412963867|0.6902322173118591|-0.5196532607078552|0|0|0|-1|-1|3
2021-03-04 23:14:45.153 +0000|234800.31739475|-0.3571624755859375|0.5047454833984375|-0.6009674072265625|234800.29743175|1.119279687980844|-0.7315917555900618|-0.7328182708202782|1.96515429019928|0.2756470739841461|0.3179067969322205|0.03771287202835083|0.04248923063278198|-0.0175403356552124|XArbitraryZVertical|0.1062363817455576|0.4606165089060866|-0.5714483839514386|-0.6708152401746731|-0.4965599179267883|0.668967068195343|-0.5530925393104553|0|0|0|-1|-1|3
2021-03-04 23:14:45.173 +0000|234800.33735775|-0.334686279296875|0.729736328125|-0.5848846435546875|234800.31739475|1.151495671456347|-0.7053850277689625|-0.7156492129036419|0.9479529857635498|0.1757070124149323|0.3803898692131042|0.1347028315067291|-0.1768898963928223|-0.02190613746643066|XArbitraryZVertical|0.09953205176906835|0.4503396631950861|-0.5800625696441646|-0.6714275849213164|-0.4892713129520416|0.656107485294342|-0.5745751261711121|0|0|0|-1|-1|3
2021-03-04 23:14:45.193 +0000|234800.35732175|-0.3258514404296875|0.6250457763671875|-0.5703887939453125|234800.33735775|1.171669095017213|-0.6905713462507204|-0.7108431549370164|0.4920357465744019|-0.0268661305308342|0.4702060520648956|0.1190924644470215|-0.02751868963241577|0.001481235027313232|XArbitraryZVertical|0.0974057707051931|0.4454438242568957|-0.5858871906622567|-0.6699464173405196|-0.4827094078063965|0.652472972869873|-0.5841838121414185|0|0|0|-1|-1|3
2021-03-04 23:14:45.213 +0000|234800.37728475|-0.3258209228515625|0.5235595703125|-0.4615325927734375|234800.35732175|1.188842843851265|-0.6825476531810938|-0.709811756776386|0.3766691386699677|-0.2568378746509552|0.4495924711227417|0.153601735830307|0.08437776565551758|-0.007097363471984863|XArbitraryZVertical|0.09553889139817762|0.4433873352895024|-0.5911986564883862|-0.6669064674605265|-0.478430837392807|0.6516910195350647|-0.5885599851608276|0|0|0|-1|-1|3
2021-03-04 23:14:45.233 +0000|234800.39724775|-0.331329345703125|0.6595001220703125|-0.4918670654296875|234800.37728475|1.19951584661902|-0.6809016737431078|-0.7129899338969272|-0.1378824263811111|-0.2663930058479309|0.3819785118103027|0.1376694738864899|-0.1323544979095459|0.0608026385307312|XArbitraryZVertical|0.09492420178820007|0.4439844758588904|-0.5947884513518753|-0.6633957721551869|-0.4761552214622498|0.6540983319282532|-0.5877343416213989|0|0|0|-1|-1|3
2021-03-04 23:14:45.253 +0000|234800.41721075|-0.3764190673828125|0.5581207275390625|-0.5716705322265625|234800.39724775|1.201416352582186|-0.6846066546406083|-0.7222723307260102|-0.373376339673996|-0.2394084334373474|0.3089739084243774|0.1562168896198273|-0.04848140478134155|0.1408689022064209|XArbitraryZVertical|0.0970851772946637|0.4471640660807961|-0.5959281270207299|-0.6599155207203747|-0.4744694530963898|0.6610913276672363|-0.5812375545501709|0|0|0|-1|-1|3
2021-03-04 23:14:45.273 +0000|234800.43717475|-0.39483642578125|0.5950164794921875|-0.5933685302734375|234800.41721075|1.200903561196061|-0.688795567685429|-0.7295960483167079|-0.2071852684020996|-0.1347549855709076|0.1300709247589111|0.09526985883712769|-0.06470084190368652|0.02460360527038574|XArbitraryZVertical|0.09885849223913473|0.4499790726512619|-0.5962233272733533|-0.6574676762991567|-0.4738098978996277|0.6665685772895813|-0.5754916667938232|0|0|0|-1|-1|3
2021-03-04 23:14:45.293 +0000|234800.45713775|-0.4686737060546875|0.6348419189453125|-0.53546142578125|234800.43717475|1.200474845698793|-0.6913082890228985|-0.7317784986908856|0.0271298848092556|-0.07890312373638153|-0.01661528274416924|0.1029879748821259|-0.08205795288085938|-0.01959621906280518|XArbitraryZVertical|0.09907189004636988|0.4512163271424288|-0.5962840051739664|-0.6565319071494408|-0.4743258655071259|0.6681938767433167|-0.57317715883255|0|0|0|-1|-1|3
2021-03-04 23:14:45.313 +0000|234800.47710075|-0.588348388671875|0.708465576171875|-0.623626708984375|234800.45713775|1.200393217770742|-0.6925545692294627|-0.7302634249922573|0.1061996519565582|-0.03848171979188919|-0.07325521856546402|0.07007655501365662|-0.04467511177062988|-0.01258867979049683|XArbitraryZVertical|0.09811763243738984|0.4513212950846003|-0.5962645458954958|-0.6566206913609249|-0.4756856560707092|0.6670659184455872|-0.5733640193939209|0|0|0|-1|-1|3
2021-03-04 23:14:45.333 +0000|234800.49706375|-0.5202178955078125|0.76934814453125|-0.6536407470703125|234800.47710075|1.19986077980041|-0.6919155102971324|-0.7289610563180321|-0.07440882921218872|0.164204016327858|-0.02638597600162029|-0.04179665446281433|-0.02461552619934082|0.01870286464691162|XArbitraryZVertical|0.09791139624080566|0.4508272118471711|-0.5960114444929625|-0.6572203565497188|-0.4758730232715607|0.6660950779914856|-0.5743363499641418|0|0|0|-1|-1|3
2021-03-04 23:14:45.353 +0000|234800.51702775|-0.4875946044921875|0.66326904296875|-0.571441650390625|234800.51702775|1.204888972663798|-0.6831101854284374|-0.7270891962467945|0.199429377913475|0.06310978531837463|0.04740799590945244|-0.01356959342956543|0.07427018880844116|-0.04061633348464966|XArbitraryZVertical|0.09866573564547049|0.4478057055287142|-0.5971665674776503|-0.6581239349081743|-0.4715835452079773|0.6646977663040161|-0.5794702172279358|0|0|0|-1|-1|3
2021-03-04 23:14:45.373 +0000|234800.53699075|-0.48486328125|0.6194610595703125|-0.4674530029296875||||||||||||||||||||||||3
2021-03-04 23:14:45.408 +0000|234800.55695375|-0.5033416748046875|0.741241455078125|-0.4765472412109375|234800.53699075|1.209610263672224|-0.6770027347806797|-0.7261381770435894|0.02256659045815468|0.1536644995212555|0.1107964664697647|-0.01594343781471252|-0.0462348461151123|0.08046704530715942|XArbitraryZVertical|0.09905945903977752|0.4458376020011944|-0.5983868296310327|-0.6582927097063604|-0.4684315323829651|0.6639869213104248|-0.5828320980072021|0|0|0|-1|-1|3
2021-03-04 23:14:45.423 +0000|234800.57691675|-0.4949188232421875|0.5408172607421875|-0.5626373291015625|234800.55695375|1.211651462190333|-0.6730026077326453|-0.7270938096113271|0.008842523209750652|0.1970714777708054|0.1006485819816589|-0.01394408941268921|0.03880530595779419|0.1341621279716492|XArbitraryZVertical|0.1001808164619307|0.4448161547976621|-0.598889917658129|-0.658356495863645|-0.4657006561756134|0.6647012233734131|-0.5842047929763794|0|0|0|-1|-1|3
2021-03-04 23:14:45.433 +0000|234800.59687975|-0.5010223388671875|0.576873779296875|-0.59576416015625|234800.57691675|1.210909334180962|-0.6698115892242514|-0.7279085194837339|-0.1769176125526428|0.1940621435642242|-0.03716068342328072|-0.03366416692733765|-0.05189108848571777|0.04929822683334351|XArbitraryZVertical|0.1016236049068869|0.4438931145803462|-0.5985097244110928|-0.6591036040677506|-0.463497668504715|0.6653096675872803|-0.5852630734443665|0|0|0|-1|-1|3
2021-03-04 23:14:45.453 +0000|234800.61684375|-0.477813720703125|0.695526123046875|-0.6335601806640625|234800.59687975|1.203970234043805|-0.6703297967028938|-0.7321741031574643|-0.4202202558517456|0.2216292172670364|-0.1187937632203102|-0.0462975800037384|-0.1112828850746155|-0.006912648677825928|XArbitraryZVertical|0.1047011615347294|0.4445680939404388|-0.5963789751587989|-0.6600978115398102|-0.4620337188243866|0.6684881448745728|-0.5827937722206116|0|0|0|-1|-1|3
2021-03-04 23:14:45.473 +0000|234800.63680675|-0.4675140380859375|0.8184051513671875|-0.646148681640625|234800.61684375|1.193099952672013|-0.673972797386299|-0.736990112082634|-0.3956853449344635|0.2016626596450806|-0.1350572407245636|-0.02919387817382812|-0.05786538124084473|-0.03146189451217651|XArbitraryZVertical|0.1079512117697077|0.4461550480289562|-0.5931328986693296|-0.6614269397071756|-0.4621390998363495|0.6720621585845947|-0.5785844326019287|0|0|0|-1|-1|3
2021-03-04 23:14:45.492 +0000|234800.65676975|-0.4537811279296875|0.744842529296875|-0.59259033203125|234800.63680675|1.184219052082729|-0.6777199002279298|-0.7411247126746193|-0.1440007984638214|0.1896827518939972|-0.07559941709041595|-0.003873050212860107|0.09853309392929077|-0.07441449165344238|XArbitraryZVertical|0.1104724575409239|0.4477234469896135|-0.5905336615691191|-0.6622760104008292|-0.4625575840473175|0.6751180291175842|-0.5746790766716003|0|0|0|-1|-1|3
2021-03-04 23:14:45.512 +0000|234800.6767331667|-0.446014404296875|0.6861572265625|-0.566131591796875|234800.65676975|1.181843240940173|-0.6760394770972064|-0.7408985484120286|0.1230420470237732|0.234642505645752|-0.02472540736198425|-0.001447975635528564|0.1187652945518494|-0.04602253437042236|XArbitraryZVertical|0.1114095753363078|0.446990552030989|-0.5896455269981594|-0.6634045117127931|-0.4616867899894714|0.6749511957168579|-0.5755746960639954|0|0|0|-1|-1|3
2021-03-04 23:14:45.532 +0000|234800.6966971667|-0.4201202392578125|0.63262939453125|-0.5747222900390625|234800.6767331667|1.183919641579474|-0.6706145139808598|-0.735526937628908|0.2185470163822174|0.2272905111312866|-0.0273510180413723|0.01633083820343018|0.0460020899772644|0.001450479030609131|XArbitraryZVertical|0.1104054655767521|0.4442512357003496|-0.5898573957881503|-0.6652216281153641|-0.4608041048049927|0.6709779500961304|-0.5809029340744019|0|0|0|-1|-1|3
2021-03-04 23:14:45.552 +0000|234800.7166601667|-0.4254150390625|0.6552886962890625|-0.5794677734375|234800.6966971667|1.185064654977414|-0.6656674235123652|-0.7309136638781931|0.05557190999388695|0.2051155567169189|-0.07817212492227554|0.02133962512016296|-0.006005346775054932|0.02765095233917236|XArbitraryZVertical|0.1097716283795487|0.441755936906372|-0.5898166849931799|-0.6670218575395949|-0.4598314464092255|0.6675502061843872|-0.5856037735939026|0|0|0|-1|-1|3
2021-03-04 23:14:45.572 +0000|234800.7366231667|-0.439208984375|0.68902587890625|-0.5956268310546875|234800.7166601667|1.183795610511799|-0.6624131100399326|-0.7295110503915404|0.04681053012609482|0.1791144609451294|-0.1091067716479301|0.03558611869812012|-0.04049801826477051|0.01260906457901001|XArbitraryZVertical|0.110451298781238|0.4403215644350166|-0.5891687837015162|-0.6684292674191192|-0.4584987163543701|0.6665052175521851|-0.5878348350524902|0|0|0|-1|-1|3
2021-03-04 23:14:45.592 +0000|234800.7565861667|-0.440643310546875|0.7054901123046875|-0.6387786865234375|234800.7366231667|1.183160957615097|-0.6588195961260249|-0.7284055992944952|0.102627657353878|0.2112331986427307|-0.1084505692124367|0.03079351782798767|0.02584773302078247|0.001560032367706299|XArbitraryZVertical|0.1112079225079109|0.4388648050447879|-0.5887222709593123|-0.6696542322984622|-0.4568341970443726|0.6656807065010071|-0.5900609493255615|0|0|0|-1|-1|3
2021-03-04 23:14:45.612 +0000|234800.7765501667|-0.44488525390625|0.6567230224609375|-0.6158905029296875|234800.7565861667|1.183411797486493|-0.6544536576913512|-0.7261464837341165|0.1500693708658218|0.1882350444793701|-0.08142499625682831|0.01675233244895935|0.04074931144714355|-0.01906329393386841|XArbitraryZVertical|0.1115361663614684|0.4369656747051122|-0.5884928167271903|-0.6710416563048207|-0.4551678895950317|0.6639931201934814|-0.5932413935661316|0|0|0|-1|-1|3
2021-03-04 23:14:45.632 +0000|234800.7965131667|-0.44189453125|0.6617889404296875|-0.602752685546875|234800.7765501667|1.183568832833176|-0.6510123728410948|-0.723833987179244|0.0941755473613739|0.1695661693811417|-0.07952393591403961|0.007397711277008057|0.008453130722045898|-0.04173219203948975|XArbitraryZVertical|0.1115910933592359|0.4353566189670873|-0.5882825418635694|-0.672261695719974|-0.4540529847145081|0.6622622609138489|-0.5960240960121155|0|0|0|-1|-1|3
2021-03-04 23:14:45.652 +0000|234800.8164761667|-0.436279296875|0.658721923828125|-0.59710693359375|234800.7965131667|1.183899898424821|-0.6473499630737308|-0.7214127659613456|0.1185788735747337|0.1563883721828461|-0.06677885353565216|0.01969674229621887|0.00189208984375|-0.002800524234771729|XArbitraryZVertical|0.1116293661591776|0.4336574078343307|-0.588116135243589|-0.6734979641535825|-0.4528326988220215|0.6604461669921875|-0.598960280418396|0|0|0|-1|-1|3
2021-03-04 23:14:45.672 +0000|234800.8364391667|-0.4427642822265625|0.648040771484375|-0.5973968505859375|234800.8164761667|1.185070582698583|-0.6432652409765197|-0.7190418625765125|0.1556555479764938|0.150875523686409|-0.05566858500242233|0.006831824779510498|0.01421809196472168|0.006383657455444336|XArbitraryZVertical|0.1116304173681175|0.4318686418089022|-0.5882119411071648|-0.6745627919259708|-0.4513203501701355|0.6586640477180481|-0.6020562648773193|0|0|0|-1|-1|3
2021-03-04 23:14:45.692 +0000|234800.8564031667|-0.4406280517578125|0.65484619140625|-0.610260009765625|234800.8364391667|1.186287748927581|-0.639182749881988|-0.7168123313492188|0.1332856714725494|0.1617817580699921|-0.05462604761123657|0.01005160808563232|0.01153331995010376|0.006773829460144043|XArbitraryZVertical|0.111678484013564|0.4301075250991245|-0.5883297143339214|-0.6755766116564458|-0.4497336149215698|0.656984806060791|-0.6050708889961243|0|0|0|-1|-1|3
2021-03-04 23:14:45.712 +0000|234800.8763661667|-0.4468841552734375|0.6552734375|-0.6294708251953125|234800.8564031667|1.187633853517432|-0.6348891141940196|-0.7140514447277629|0.1422514617443085|0.1465603113174438|-0.05945586785674095|0.00126039981842041|-0.01311618089675903|0.007456481456756592|XArbitraryZVertical|0.1115501606855055|0.4281697958936399|-0.5884661977025355|-0.6767088892225582|-0.4482056200504303|0.654900848865509|-0.6084543466567993|0|0|0|-1|-1|3
2021-03-04 23:14:45.732 +0000|234800.8963291667|-0.4385528564453125|0.657073974609375|-0.6146697998046875|234800.8763661667|1.188064393882522|-0.6317932961620192|-0.7115595880989274|0.07840666919946671|0.1333509087562561|-0.08253739774227142|0.003953307867050171|-0.003128588199615479|-0.01512771844863892|XArbitraryZVertical|0.1113735958885765|0.426636806488257|-0.5883693481769409|-0.6777893327321323|-0.4472821354866028|0.6530157327651978|-0.6111539006233215|0|0|0|-1|-1|3
2021-03-04 23:14:45.752 +0000|234800.9162921667|-0.4284515380859375|0.6750640869140625|-0.568572998046875|234800.8963291667|1.187052943892853|-0.6295811395518207|-0.7102742755774728|0.0560392439365387|0.1604660004377365|-0.07051517814397812|0.001919150352478027|0.0189787745475769|-0.009845554828643799|XArbitraryZVertical|0.1117260755797627|0.425567111310969|-0.5878669923931159|-0.6788389831106008|-0.4464229345321655|0.6520417332649231|-0.6128198504447937|0|0|0|-1|-1|3
2021-03-04 23:14:45.772 +0000|234800.9362561667|-0.413055419921875|0.7337493896484375|-0.5670318603515625|234800.9162921667|1.186885947662252|-0.6258642445401544|-0.7088883681296018|0.1116371154785156|0.2463470995426178|-0.04016757011413574|0.01344236731529236|0.01565086841583252|0.01271349191665649|XArbitraryZVertical|0.1122998340285721|0.4240111068367637|-0.5875638555559403|-0.6799794010328576|-0.4446709752082825|0.65099036693573|-0.6152066588401794|0|0|0|-1|-1|3
2021-03-04 23:14:45.792 +0000|234800.9562191667|-0.4351959228515625|0.6346435546875|-0.6280517578125|234800.9362561667|1.189649318208075|-0.6189168894928874|-0.7053154613202675|0.2639686763286591|0.2741986811161041|-0.005482824984937906|0.01839298009872437|0.0634722113609314|0.06606400012969971|XArbitraryZVertical|0.1123297395461323|0.4210655873257599|-0.5880186041749651|-0.6814101903920774|-0.4417328238487244|0.6482740640640259|-0.6201716065406799|0|0|0|-1|-1|3
2021-03-04 23:14:45.812 +0000|234800.9761821667|-0.4301605224609375|0.6068572998046875|-0.67449951171875|234800.9562191667|1.191859067538676|-0.6123476511101975|-0.7018904087580304|0.1082641705870628|0.2356830388307571|-0.06473212689161301|0.02128991484642029|0.03887742757797241|0.02473002672195435|XArbitraryZVertical|0.1124292501556335|0.4182379681789529|-0.5883152857716061|-0.6828775425053688|-0.4389229416847229|0.6456624269485474|-0.6248733401298523|0|0|0|-1|-1|3
2021-03-04 23:14:45.832 +0000|234800.9961451667|-0.4314727783203125|0.6754608154296875|-0.6835784912109375|234800.9761821667|1.190848975415162|-0.6090896394506562|-0.6998215020291357|0.08155815303325653|0.1773840039968491|-0.1164143159985542|0.005641251802444458|-0.04195404052734375|-0.02862673997879028|XArbitraryZVertical|0.1127710442507902|0.4166359711681075|-0.5877348466169834|-0.6842988730096057|-0.4376481175422668|0.644081175327301|-0.6273943185806274|0|0|0|-1|-1|3
2021-03-04 23:14:45.852 +0000|234801.0161091667|-0.4116668701171875|0.6751861572265625|-0.633514404296875|234800.9961451667|1.190478892023879|-0.6061867719878403|-0.6966411398854427|0.2013816684484482|0.16573666036129|-0.1092996820807457|0.002831578254699707|0.00915759801864624|-0.06683164834976196|XArbitraryZVertical|0.1124289854929603|0.414956080553547|-0.5873656114534249|-0.6856914856273792|-0.4369898736476898|0.641645073890686|-0.6303423643112183|0|0|0|-1|-1|3
2021-03-04 23:14:45.872 +0000|234801.0360721667|-0.41949462890625|0.6417388916015625|-0.615966796875|234801.0161091667|1.191049621012342|-0.6032508272533015|-0.6934836555731554|0.2083576172590256|0.1341490149497986|-0.1019592061638832|0.01408913731575012|0.04739499092102051|-0.02270269393920898|XArbitraryZVertical|0.1119100314054928|0.4133185234437046|-0.5873186807032672|-0.6868047845182144|-0.4362845718860626|0.6392200589179993|-0.6332879066467285|0|0|0|-1|-1|3
2021-03-04 23:14:45.909 +0000|234801.0560351667|-0.432891845703125|0.6389923095703125|-0.6290435791015625|234801.0360721667|1.191560863772425|-0.6008373061349433|-0.6913337116863646|0.1495120227336884|0.09500843286514282|-0.07864314317703247|0.01725682616233826|0.01728105545043945|0.01507937908172607|XArbitraryZVertical|0.1116531887709383|0.4120655257134806|-0.5873067303865602|-0.6876092123968847|-0.4355307519435883|0.6375652551651001|-0.6354711651802063|0|0|0|-1|-1|3
2021-03-04 23:14:45.922 +0000|234801.0759981667|-0.4361114501953125|0.63641357421875|-0.67333984375|234801.0560351667|1.192779489568028|-0.5980895698923893|-0.6868764577303232|0.2600704729557037|0.08905818313360214|-0.0775722935795784|0.008865147829055786|-0.003311395645141602|0.02709972858428955|XArbitraryZVertical|0.1104263951168529|0.4102464992491958|-0.5874647132206228|-0.6887591376932428|-0.4353788197040558|0.6341250538825989|-0.6390076279640198|0|0|0|-1|-1|3
2021-03-04 23:14:45.931 +0000|234801.0959621667|-0.415435791015625|0.5768890380859375|-0.6143951416015625|234801.0759981667|1.195901054383288|-0.5941542570012315|-0.6804087115856673|0.3365402221679688|0.05834480002522469|-0.09193249046802521|-0.001284241676330566|0.007516443729400635|-0.01463603973388672|XArbitraryZVertical|0.1083573176287966|0.4076863336518077|-0.588168226695862|-0.6900063692886935|-0.4351476728916168|0.6291107535362244|-0.644101083278656|0|0|0|-1|-1|3
2021-03-04 23:14:45.952 +0000|234801.1159251667|-0.4220733642578125|0.602691650390625|-0.580352783203125|234801.0959621667|1.197849319043995|-0.591549688768214|-0.6748376414746275|0.2007735371589661|0.05660016462206841|-0.1500897258520126|0.008689016103744507|-0.003768265247344971|-0.01078873872756958|XArbitraryZVertical|0.1064990600236819|0.4056996361937352|-0.5885658013788508|-0.6911267152921492|-0.4354163110256195|0.6247705817222595|-0.6481314897537231|0|0|0|-1|-1|3
2021-03-04 23:14:45.972 +0000|234801.1358881667|-0.4269866943359375|0.713226318359375|-0.6447601318359375|234801.1159251667|1.195484614594945|-0.5920512337819234|-0.6721474602574993|0.005665105301886797|0.03719562292098999|-0.2156410366296768|0.01376509666442871|-0.09320306777954102|0.05856138467788696|XArbitraryZVertical|0.1057545154860347|0.40517072018413|-0.5877081695628951|-0.6922801094690559|-0.4366776645183563|0.6226677894592285|-0.6493053436279297|0|0|0|-1|-1|3
2021-03-04 23:14:45.991 +0000|234801.1558511667|-0.431060791015625|0.708465576171875|-0.7310791015625|234801.1358881667|1.189247807759692|-0.5957297510029727|-0.6721149554221723|-0.08462884277105331|-0.001884825527667999|-0.1813740581274033|0.002230703830718994|-0.01705151796340942|0.03101223707199097|XArbitraryZVertical|0.1059272962714649|0.406108021461871|-0.5857414947294722|-0.69337041056515|-0.4390745460987091|0.6226423382759094|-0.6477113366127014|0|0|0|-1|-1|3
2021-03-04 23:14:46.011 +0000|234801.1758151667|-0.4245147705078125|0.6068878173828125|-0.7062225341796875|234801.1558511667|1.18669130420366|-0.5969454585943992|-0.6697571632627601|0.1482041329145432|0.01891307532787323|-0.1538325250148773|0.002270132303237915|0.1608664393424988|-0.04319977760314941|XArbitraryZVertical|0.1051448921763988|0.4058938275011079|-0.5848553123856696|-0.6943623339815543|-0.4406856596469879|0.6207956075668335|-0.6483895182609558|0|0|0|-1|-1|3
2021-03-04 23:14:46.031 +0000|234801.1957781667|-0.4171905517578125|0.6221923828125|-0.692138671875|234801.1758151667|1.185997273257814|-0.5968669497489733|-0.6651227911082208|0.1913249045610428|-0.00666189705953002|-0.1622880697250366|0.009706169366836548|0.04087954759597778|-0.06769382953643799|XArbitraryZVertical|0.1034486497150592|0.4048457003635707|-0.5844818125368387|-0.695542461713855|-0.4422470331192017|0.6171557307243347|-0.65079665184021|0|0|0|-1|-1|3
2021-03-04 23:14:46.051 +0000|234801.2157411667|-0.4545135498046875|0.6223297119140625|-0.6866455078125|234801.1957781667|1.185430289950457|-0.5978161078049541|-0.6594489467680269|0.2390665858983994|-0.04590309783816338|-0.1639536917209625|0.02385357022285461|-0.009226799011230469|-0.04217398166656494|XArbitraryZVertical|0.1010079040576002|0.4039395196781335|-0.5841707912191438|-0.6966885156990679|-0.4448283016681671|0.6126814484596252|-0.6532605290412903|0|0|0|-1|-1|3
2021-03-04 23:14:46.071 +0000|234801.2357051667|-0.50677490234375|0.5885162353515625|-0.7082061767578125|234801.2157411667|1.185355354822254|-0.5992383543021675|-0.6541951281347662|0.2546944320201874|-0.04903492331504822|-0.1600135415792465|0.01970982551574707|0.01872235536575317|-0.02932459115982056|XArbitraryZVertical|0.09849734121646163|0.4033115022474688|-0.5840598599128712|-0.6975042342060431|-0.4475662708282471|0.6085207462310791|-0.6552762389183044|0|0|0|-1|-1|3
2021-03-04 23:14:46.092 +0000|234801.2556681667|-0.572662353515625|0.6065673828125|-0.6862640380859375|234801.2357051667|1.186357178783755|-0.5991968615291998|-0.6491577315243324|0.3542068004608154|0.01463289745151997|-0.1923586130142212|-0.02928388118743896|0.001792311668395996|-0.04210275411605835|XArbitraryZVertical|0.09628403863101745|0.4022691381522445|-0.5842537855407306|-0.6982524997485943|-0.4492622315883636|0.6045156717300415|-0.6578178405761719|0|0|0|-1|-1|3
2021-03-04 23:14:46.111 +0000|234801.2756311667|-0.738525390625|0.67803955078125|-0.783477783203125|234801.2556681667|1.189503982861609|-0.5972288698239544|-0.6377448494306204|0.6419129371643066|-0.06128226593136787|-0.2811627686023712|-0.09450834989547729|-0.04469537734985352|-0.08022040128707886|XArbitraryZVertical|0.09164384203295928|0.399274469586156|-0.5849044010765416|-0.7000486108410361|-0.4518173038959503|0.5953850746154785|-0.6643626093864441|0|0|0|-1|-1|3
2021-03-04 23:14:46.131 +0000|234801.2955941667|-0.8436126708984375|0.742340087890625|-0.85986328125|234801.2756311667|1.192017649812446|-0.5967579101889345|-0.6242879827182495|0.5155491232872009|-0.08160074800252914|-0.3573515713214874|-0.2171756327152252|0.08659243583679199|-0.0436403751373291|XArbitraryZVertical|0.08587582644632349|0.3963006583891241|-0.5853263460311252|-0.7021141880156195|-0.4559658765792847|0.5845196843147278|-0.6711422801017761|0|0|0|-1|-1|3
2021-03-04 23:14:46.151 +0000|234801.3155581667|-0.9408721923828125|0.82489013671875|-0.8209075927734375|234801.2955941667|1.189121933066893|-0.5986539633800747|-0.6133496057492585|0.2365811765193939|0.07333594560623169|-0.4481933116912842|-0.327135443687439|0.136807918548584|-0.1665991544723511|XArbitraryZVertical|0.08149685408262508|0.394460662087224|-0.5840096891033199|-0.7047636560417678|-0.4608131647109985|0.5756097435951233|-0.6755180954933167|0|0|0|-1|-1|3
2021-03-04 23:14:46.171 +0000|234801.3355211667|-1.007369995117188|0.8831329345703125|-0.8266754150390625|234801.3155581667|1.18110122737425|-0.5996536458440775|-0.6068697540914879|-0.07322186976671219|0.2762522399425507|-0.4571637213230133|-0.4215331077575684|0.2116529941558838|-0.1679320335388184|XArbitraryZVertical|0.08017513438325749|0.3930788173819415|-0.5809796288434063|-0.7081833279788602|-0.4635834991931915|0.570298969745636|-0.6781219840049744|0|0|0|-1|-1|3
2021-03-04 23:14:46.191 +0000|234801.3554841667|-1.043060302734375|0.9198455810546875|-0.7770233154296875|234801.3355211667|1.168781882643306|-0.6005015849004204|-0.6059734903920623|-0.4268008172512054|0.3078845739364624|-0.423066109418869|-0.5173798203468323|0.2806724905967712|-0.1483573913574219|XArbitraryZVertical|0.08198779057963984|0.3926868259361243|-0.5766064254372183|-0.7117584804698411|-0.4644469916820526|0.5695624947547913|-0.6781501173973083|0|0|0|-1|-1|3
2021-03-04 23:14:46.211 +0000|234801.3754481667|-1.023117065429688|1.000625610351562|-0.719573974609375|234801.3554841667|1.152361367356701|-0.6045953934546292|-0.6116924392447676|-0.8071997761726379|0.217403307557106|-0.362762838602066|-0.5653406381607056|0.3371689319610596|-0.1305402517318726|XArbitraryZVertical|0.08636344226665829|0.3946711367599214|-0.5711518368434414|-0.7145358661365011|-0.4653600752353668|0.5742538571357727|-0.6735520958900452|0|0|0|-1|-1|3
2021-03-04 23:14:46.231 +0000|234801.3954111667|-0.9835662841796875|0.9937896728515625|-0.6474456787109375|234801.3754481667|1.131716960525255|-0.6138036705294345|-0.6247844032141378|-1.261360168457031|0.04504662379622459|-0.2710007727146149|-0.569128692150116|0.3722614645957947|-0.08339387178421021|XArbitraryZVertical|0.09317649950530758|0.3997503810909859|-0.5647287307090872|-0.7159603997893675|-0.4671719968318939|0.5849224328994751|-0.6630355715751648|0|0|0|-1|-1|3
2021-03-04 23:14:46.251 +0000|234801.4153741667|-0.8711395263671875|0.942901611328125|-0.5824127197265625|234801.3954111667|1.101812342264503|-0.6325356011416624|-0.6498138983771762|-2.282789707183838|-0.1646935045719147|-0.2413064539432526|-0.5312941670417786|0.4106936454772949|-0.03003823757171631|XArbitraryZVertical|0.1042128167683926|0.4099525596659421|-0.5560639953299059|-0.7154519518189463|-0.4707047343254089|0.6050382256507874|-0.6421571969985962|0|0|0|-1|-1|3
2021-03-04 23:14:46.271 +0000|234801.4353371667|-0.7456512451171875|0.931243896484375|-0.5067291259765625|234801.4153741667|1.050551285907799|-0.6733332332468051|-0.69475225597875|-3.767014503479004|-0.8339601159095764|-0.2331989109516144|-0.4642600417137146|0.3278071880340576|-0.02622193098068237|XArbitraryZVertical|0.1222454157110789|0.4298628305345943|-0.5423279995427424|-0.7114452522942183|-0.4790535271167755|0.6401951313018799|-0.6005480289459229|0|0|0|-1|-1|3
2021-03-04 23:14:46.291 +0000|234801.4553011667|-0.7017974853515625|0.890899658203125|-0.273406982421875|234801.4353371667|0.9668433051010331|-0.7566499870149132|-0.7612998092804235|-5.341558456420898|-1.934738874435425|-0.1393109261989594|-0.3175523281097412|0.2392141819000244|-0.0138469934463501|XArbitraryZVertical|0.1462928280725861|0.4641073150630929|-0.522527906325889|-0.7001196396604169|-0.4969771206378937|0.6898630261421204|-0.5264056324958801|0|0|0|-1|-1|3
2021-03-04 23:14:46.311 +0000|234801.4752641667|-0.636566162109375|0.68255615234375|-0.1513824462890625|234801.4553011667|0.8375570387278068|-0.897444484130151|-0.8414622572006699|-6.713584423065186|-2.687560319900513|-0.1132704541087151|-0.1677470207214355|0.1541619896888733|-0.001603066921234131|XArbitraryZVertical|0.175170732683163|0.5114066330000884|-0.4963063922619707|-0.6793074396570751|-0.5209279656410217|0.7456183433532715|-0.415556937456131|0|0|0|-1|-1|3
2021-03-04 23:14:46.331 +0000|234801.4952271667|-0.55755615234375|0.542022705078125|-0.0886383056640625|234801.4752641667|0.6553177890686863|-1.095049817090002|-0.9154604693450203|-7.175667285919189|-3.071547985076904|0.004275707062333822|-0.1410354375839233|-0.03376424312591553|0.04779511690139771|XArbitraryZVertical|0.2069497320524698|0.5635713410352142|-0.4643047798361157|-0.6511377308682635|-0.5417496562004089|0.7928432822227478|-0.2791182994842529|0|0|0|-1|-1|3
2021-03-04 23:14:46.351 +0000|234801.5151911667|-0.5579681396484375|0.501800537109375|0.1008453369140625|234801.4952271667|0.4270397267153198|-1.343091447552294|-0.9679294315914186|-7.13533878326416|-3.275692462921143|0.2829344868659973|-0.04603368043899536|-0.2158337831497192|-0.03461557626724243|XArbitraryZVertical|0.2392843050793312|0.61542211527763|-0.4297669488847309|-0.6158725808655131|-0.5523702502250671|0.823713481426239|-0.1279972791671753|0|0|0|-1|-1|3
2021-03-04 23:14:46.373 +0000|234801.5351541667|-0.57147216796875|0.581085205078125|0.5124969482421875|234801.5151911667|0.1696514510435821|-1.62382344232566|-0.9888706863564433|-7.683485984802246|-3.369045972824097|0.4630026519298553|0.04593133926391602|-0.3864770531654358|-0.09566009044647217|XArbitraryZVertical|0.2712456808036608|0.6640720545906009|-0.3944037687025027|-0.5743515614881199|-0.548861026763916|0.8354058265686035|0.02913182601332664|0|0|0|-1|-1|3
2021-03-04 23:14:46.416 +0000|234801.5551171667|-0.539093017578125|0.9416961669921875|0.61669921875|234801.5351541667|-0.1078529467057513|-1.91784919097993|-0.9679602923556961|-7.906210899353027|-2.918021440505981|0.299943596124649|-0.0273241400718689|-0.3865057229995728|0.09688803553581238|XArbitraryZVertical|0.3059375395283729|0.7091016809780872|-0.352929211957266|-0.5282214761895305|-0.5331768989562988|0.8237309455871582|0.1928459405899048|0|0|0|-1|-1|3
2021-03-04 23:14:46.431 +0000|234801.5750801667|-0.4838409423828125|0.6149139404296875|0.532196044921875|234801.5551171667|-0.3363274689911451|-2.150572473073713|-0.9061075041731605|-7.230715274810791|-2.01776909828186|0.278445303440094|-0.0536842942237854|0.1630561947822571|0.2145004570484161|XArbitraryZVertical|0.3375754829898667|0.74498294116828|-0.3080823855365856|-0.4859306066383556|-0.5160179138183594|0.7871087789535522|0.3379135727882385|0|0|0|-1|-1|3
2021-03-04 23:14:46.433 +0000|234801.5950441667|-0.52276611328125|1.092849731445312|0.426544189453125|234801.5950441667|-0.6272543260239423|-2.433190458031715|-0.7504538881897613|-4.987388134002686|-1.272931814193726|0.7469883561134338|-0.01618385314941406|0.1866510510444641|-0.07195180654525757|XArbitraryZVertical|0.3901386027610272|0.7908840212586894|-0.2274073437099761|-0.413013636101983|-0.4758509993553162|0.6819707751274109|0.5554113388061523|0|0|0|-1|-1|3
2021-03-04 23:14:46.451 +0000|234801.6150071667|-0.4874725341796875|1.24298095703125|0.5511932373046875||||||||||||||||||||||||3
2021-03-04 23:14:46.471 +0000|234801.6349701667|-0.4253387451171875|0.71844482421875|0.5531768798828125|234801.6150071667|-0.7127783288188722|-2.508628055013271|-0.6912483110070454|-3.935744285583496|-0.6981331706047058|0.7052629590034485|-0.03758120536804199|0.4532293081283569|-0.1716578602790833|XArbitraryZVertical|0.410770592507938|0.8011654298206252|-0.1995646054912211|-0.3867498316996724|-0.4557506442070007|0.6374994516372681|0.6211970448493958|0|0|0|-1|-1|3
2021-03-04 23:14:46.493 +0000|234801.6549341667|-0.6884307861328125|0.413787841796875|0.508056640625|234801.6349701667|-0.7901106157123898|-2.56813087163663|-0.6430878788847724|-3.477746963500977|-0.4061531722545624|1.493452310562134|-0.002262741327285767|0.3858959078788757|-0.1445510983467102|XArbitraryZVertical|0.432722573402149|0.8055225122902642|-0.176514130140752|-0.364317894539874|-0.4341692328453064|0.599669337272644|0.6722306609153748|0|0|0|-1|-1|3
2021-03-04 23:14:46.511 +0000|234801.6748967917|-0.5260772705078125|0.2552337646484375|0.508209228515625|234801.6549341667|-0.8714013437336361|-2.618211670452444|-0.5933050664205042|-4.094137668609619|0.148274153470993|1.285972833633423|-0.09610563516616821|0.4275748133659363|-0.0829319953918457|XArbitraryZVertical|0.4584314376135448|0.8055405132072418|-0.1515681148082222|-0.3434709681116143|-0.4143923819065094|0.5591042637825012|0.7181097865104675|0|0|0|-1|-1|3
2021-03-04 23:14:46.531 +0000|234801.6948597917|-0.2419891357421875|0.7825775146484375|0.832794189453125|234801.6748967917|-0.938379341846121|-2.646562246003744|-0.5329267106420201|-3.432287693023682|0.2442155629396439|0.7661082744598389|-0.2070164680480957|-0.4453731775283813|-0.1736360192298889|XArbitraryZVertical|0.4804532576338781|0.8050637247411976|-0.120839125588301|-0.3262439801036151|-0.4091792702674866|0.5080563426017761|0.7579258680343628|0|0|0|-1|-1|3
2021-03-04 23:14:46.551 +0000|234801.7148227917|-0.4709930419921875|1.08978271484375|0.5620269775390625|234801.6948597917|-0.9850878016809559|-2.66844665506408|-0.4946818187309898|-1.946426153182983|-0.1822895407676697|1.19379198551178|0.1074970960617065|-0.01064038276672363|-0.1016968488693237|XArbitraryZVertical|0.4962679498987608|0.8033882409625075|-0.1022615565327504|-0.3127747557447657|-0.4010608494281769|0.4747516512870789|0.7834290862083435|0|0|0|-1|-1|3
2021-03-04 23:14:46.574 +0000|234801.7347867917|-0.317626953125|0.75244140625|0.4781494140625|234801.7148227917|-1.01928441626262|-2.683796379229145|-0.4772607023960903|-1.105170130729675|0.1615205556154251|0.8997074961662292|-0.04753959178924561|0.7738065719604492|-0.02596330642700195|XArbitraryZVertical|0.5084937944012097|0.7998936755371302|-0.09338998056546333|-0.3047663479510482|-0.392584890127182|0.4593476951122284|0.796791672706604|0|0|0|-1|-1|3
2021-03-04 23:14:46.591 +0000|234801.7547497917|-0.3198394775390625|0.2960968017578125|0.5467071533203125|234801.7347867917|-1.045476876027859|-2.689467069081064|-0.4686949600720712|-0.8808134794235229|0.3270788490772247|0.9051699042320251|-0.04927614331245422|0.4587237238883972|-0.344446063041687|XArbitraryZVertical|0.5183495463206275|0.795343470000216|-0.08723364705624599|-0.3018821439638482|-0.3897649347782135|0.4517223536968231|0.8025149703025818|0|0|0|-1|-1|3
2021-03-04 23:14:46.611 +0000|234801.7747127917|-0.3531341552734375|0.2855377197265625|0.506744384765625|234801.7547497917|-1.075275121534428|-2.69744850778806|-0.457911343770961|-1.25380003452301|0.2450392693281174|0.9796229600906372|0.1187860369682312|0.01143094897270203|-0.3054963350296021|XArbitraryZVertical|0.5294327233271143|0.7903651189797672|-0.08030496145584498|-0.2976158250342528|-0.385418176651001|0.4420755803585052|0.8099520802497864|0|0|0|-1|-1|3
2021-03-04 23:14:46.630 +0000|234801.7946757917|-0.5175628662109375|0.1723480224609375|0.3254241943359375|234801.7747127917|-1.104938553741563|-2.705229350143392|-0.4457963529194007|-0.7392674088478088|0.2512558400630951|0.8580285906791687|-0.001304477453231812|-0.1055998206138611|-0.2597216367721558|XArbitraryZVertical|0.5404047139570416|0.785380746499718|-0.07292637732827137|-0.2929532134539571|-0.3813401162624359|0.4311765432357788|0.817720353603363|0|0|0|-1|-1|3
2021-03-04 23:14:46.651 +0000|234801.8146397917|-0.506683349609375|0.2532501220703125|0.6041107177734375|234801.7946757917|-1.119942638689949|-2.704955119845853|-0.4490303179274707|0.2048407047986984|0.4220516681671143|0.5603013038635254|-0.07045859098434448|-0.1344095170497894|-0.4372280240058899|XArbitraryZVertical|0.5463944091561773|0.7807862809324704|-0.07199711533245007|-0.2943509826541142|-0.3809727728366852|0.4340921938419342|0.816348135471344|0|0|0|-1|-1|3
2021-03-04 23:14:46.670 +0000|234801.8346027917|-0.5321502685546875|0.516815185546875|0.748748779296875|234801.8146397917|-1.131340767051892|-2.699239892863757|-0.4546966461778697|-0.3878665268421173|0.6246948838233948|0.6953065991401672|-0.1435642242431641|-0.3109548687934875|-0.391266942024231|XArbitraryZVertical|0.5512134490612959|0.7759668061566249|-0.07109296155914542|-0.2983039025906674|-0.3845730721950531|0.4391897916793823|0.8119214773178101|0|0|0|-1|-1|3
2021-03-04 23:14:46.691 +0000|234801.8545657917|-0.423004150390625|0.490386962890625|1.022979736328125|234801.8346027917|-1.151346132692146|-2.696252760208958|-0.451915597383928|-0.2790402173995972|0.4990729689598083|0.7167604565620422|-0.1539064645767212|-0.1100448369979858|-0.08812820911407471|XArbitraryZVertical|0.5589635333900539|0.7703854064578102|-0.06612466889107127|-0.2994888300160061|-0.3875210881233215|0.4366896152496338|0.8118678331375122|0|0|0|-1|-1|3
2021-03-04 23:14:46.711 +0000|234801.8745297917|-0.5553741455078125|0.4910430908203125|0.942474365234375|234801.8545657917|-1.162450420072398|-2.693871612287937|-0.4601558555091683|0.5972585082054138|0.2151281237602234|0.5752123594284058|-0.05447003245353699|0.2179300487041473|0.1298436522483826|XArbitraryZVertical|0.5635546006793031|0.7656644387520573|-0.06717447523876297|-0.3027404461924643|-0.3878822326660156|0.4440877437591553|0.8076716661453247|0|0|0|-1|-1|3
2021-03-04 23:14:46.730 +0000|234801.8944927917|-0.67388916015625|0.264190673828125|0.977874755859375|234801.8745297917|-1.167001531673545|-2.692127153113756|-0.480748233358461|0.8477600812911987|0.2113763689994812|0.7071177363395691|-0.1273533999919891|0.008000940084457397|0.1538974642753601|XArbitraryZVertical|0.5659264678929047|0.7609340307431004|-0.07443271394777488|-0.3084905682344976|-0.385235071182251|0.4624427258968353|0.7985867261886597|0|0|0|-1|-1|3
2021-03-04 23:14:46.750 +0000|234801.9144557917|-0.5269622802734375|0.666259765625|0.9792022705078125|234801.8944927917|-1.177481950040209|-2.693674302641721|-0.4963999662041609|0.2892255485057831|0.3237383365631104|0.8793716430664062|-0.1858634948730469|-0.3014584183692932|0.02894258499145508|XArbitraryZVertical|0.5702273108961877|0.7557254089299994|-0.07964677399955421|-0.3120518110170076|-0.3808174431324005|0.4762631058692932|0.7925601601600647|0|0|0|-1|-1|3
2021-03-04 23:14:46.770 +0000|234801.9344187917|-0.472320556640625|0.682952880859375|1.059799194335938|234801.9144557917|-1.192684099559675|-2.692965981227435|-0.5117392792245941|0.5539832711219788|0.464400976896286|0.9870201349258423|-0.1786888837814331|0.2124080955982208|0.2946009635925293|XArbitraryZVertical|0.5763021421465772|0.748787772121791|-0.0832989030610313|-0.3166290972577755|-0.3781653344631195|0.4896944463253021|0.785614550113678|0|0|0|-1|-1|3
2021-03-04 23:14:46.791 +0000|234801.9543827917|-0.5384674072265625|0.628631591796875|0.7876129150390625|234801.9344187917|-1.208770968279268|-2.690246064329047|-0.5312752693358805|0.6009577512741089|0.5492690205574036|1.147334456443787|-0.1949739456176758|0.2082259058952332|0.2503587603569031|XArbitraryZVertical|0.5827584991284621|0.7404764082841108|-0.08784660620527721|-0.3230639818265121|-0.3760558068752289|0.5066332221031189|0.775825560092926|0|0|0|-1|-1|3
2021-03-04 23:14:46.811 +0000|234801.9743457917|-0.3706207275390625|1.071548461914062|1.194549560546875|234801.9543827917|-1.228089228424907|-2.692392539065316|-0.5517227116144184|0.2552600502967834|0.1202967911958694|1.166731476783752|-0.08212170004844666|0.1772302985191345|0.1928083300590515|XArbitraryZVertical|0.5900496360730882|0.7317172282902622|-0.09355540739269769|-0.3281443424834257|-0.3698130548000336|0.5241550803184509|0.767137348651886|0|0|0|-1|-1|3
2021-03-04 23:14:46.830 +0000|234801.9943087917|-0.2736358642578125|0.46209716796875|0.970428466796875|234801.9743457917|-1.254412838106625|-2.698123726700377|-0.5742533029041249|0.7796556353569031|0.5080674290657043|1.686313986778259|-0.3294615745544434|0.1146899461746216|-0.3451288938522339|XArbitraryZVertical|0.599506173208562|0.7209602897189235|-0.09989789265714134|-0.3329099909650017|-0.3602509498596191|0.5432080030441284|0.7583827972412109|0|0|0|-1|-1|3
2021-03-04 23:14:46.851 +0000|234802.0142717917|-0.2731781005859375|0.450225830078125|0.869140625|234801.9943087917|-1.277680674926142|-2.705123531450454|-0.6061955700047041|1.354515314102173|0.2001105099916458|1.326433062553406|0.2132329344749451|0.2695646286010742|0.3777370452880859|XArbitraryZVertical|0.6074650962781175|0.7094885962194727|-0.1107207288877687|-0.3396366654453838|-0.3474187254905701|0.5697450041770935|0.7447758316993713|0|0|0|-1|-1|3
2021-03-04 23:14:46.870 +0000|234802.0342357917|-0.26458740234375|0.6550445556640625|0.3069000244140625|234802.0142717917|-1.296917548373984|-2.710177176663912|-0.6400297283530337|1.128422737121582|0.4216341078281403|1.57922089099884|-0.02073031663894653|-0.3638056516647339|0.2304733395576477|XArbitraryZVertical|0.6136751860890295|0.6983526934425783|-0.1222075227683822|-0.3475221015812617|-0.3353945314884186|0.5972192883491516|0.7285874485969543|0|0|0|-1|-1|3
2021-03-04 23:14:46.890 +0000|234802.0541987917|-0.3057708740234375|0.3825531005859375|0.2129974365234375|234802.0342357917|-1.318797892679656|-2.715579854761576|-0.676336473956885|1.497933268547058|0.4066270291805267|1.441412925720215|0.1551775634288788|0.145849347114563|-0.08161145448684692|XArbitraryZVertical|0.6203135842926621|0.6857801940100527|-0.1341067131395646|-0.3562752038030979|-0.3222765326499939|0.6259401440620422|0.7101668119430542|0|0|0|-1|-1|3
2021-03-04 23:14:46.924 +0000|234802.0741617917|-0.295257568359375|0.640899658203125|0.3126068115234375|234802.0541987917|-1.336912334073426|-2.717267642507233|-0.7119248852488181|1.033111691474915|0.5603103041648865|1.349273920059204|-0.02974101901054382|-0.1994653344154358|-0.5341559052467346|XArbitraryZVertical|0.6254868107654412|0.673608203286489|-0.1450301994163859|-0.3660390995809964|-0.3117049336433411|0.6532922983169556|0.6899635195732117|0|0|0|-1|-1|3
2021-03-04 23:14:46.930 +0000|234802.0941247917|-0.23724365234375|0.525390625|0.46905517578125|234802.0741617917|-1.361770653742344|-2.720641180096152|-0.7380441444855692|0.7793971300125122|0.7906824350357056|1.341675400733948|0.008139163255691528|-0.1002102494239807|-0.421525776386261|XArbitraryZVertical|0.6327043285509156|0.6612767346119892|-0.1514261425872968|-0.373454940570934|-0.3022981882095337|0.672842264175415|0.6752033829689026|0|0|0|-1|-1|3
2021-03-04 23:14:46.950 +0000|234802.1140887917|-0.197357177734375|0.6312408447265625|0.5944976806640625|234802.0941247917|-1.383399473106879|-2.71829352683741|-0.7634919197443284|0.8576506376266479|0.9105217456817627|1.165835499763489|0.05302280187606812|-0.0467337965965271|-0.260256826877594|XArbitraryZVertical|0.6389971957218703|0.6488563683006536|-0.1561662077840669|-0.3824660228321065|-0.2967514991760254|0.6914483308792114|0.6586639881134033|0|0|0|-1|-1|3
2021-03-04 23:14:46.970 +0000|234802.1340517917|-0.18585205078125|0.6680908203125|0.5955963134765625|234802.1140887917|-1.402329099350716|-2.713721205917219|-0.7901149350132168|1.076361656188965|0.8882675170898438|1.16976273059845|0.05761080980300903|-0.2134094834327698|-0.09451323747634888|XArbitraryZVertical|0.6442774425253022|0.6364485687280004|-0.1609534586187485|-0.3923441471698592|-0.2920163869857788|0.7104341387748718|0.6403204202651978|0|0|0|-1|-1|3
2021-03-04 23:14:46.990 +0000|234802.1540147917|-0.163604736328125|0.6380157470703125|0.5576019287109375|234802.1340517917|-1.416797523406367|-2.705467121611015|-0.8233695543974512|1.528423070907593|0.9995599389076233|1.136664032936096|0.1054016053676605|-0.06519699096679688|0.001122891902923584|XArbitraryZVertical|0.6478784623918503|0.6231503605216137|-0.1676886785212928|-0.4047440728965161|-0.2871490716934204|0.7334404587745667|0.616125762462616|0|0|0|-1|-1|3
2021-03-04 23:14:47.010 +0000|234802.1739777917|-0.1780548095703125|0.3789215087890625|0.50872802734375|234802.1540147917|-1.423817837934526|-2.688666415445986|-0.864117558032989|1.965397238731384|1.201359748840332|1.020407915115356|0.1018868386745453|-0.09809267520904541|-0.00834125280380249|XArbitraryZVertical|0.6492846179534169|0.6085641984250236|-0.1757375542838151|-0.4209459128443551|-0.2841378450393677|0.7605226039886475|0.5838418006896973|0|0|0|-1|-1|3
2021-03-04 23:14:47.030 +0000|234802.1939417917|-0.20672607421875|0.2821502685546875|0.450164794921875|234802.1739777917|-1.426230881568818|-2.664430655253852|-0.9054148953641837|1.480456948280334|1.426307201385498|1.016050577163696|0.1267597377300262|-0.1920156478881836|0.01490718126296997|XArbitraryZVertical|0.6498104937995852|0.5932513639390197|-0.1824203171062106|-0.4387734298817331|-0.283528596162796|0.7866813540458679|0.5484017133712769|0|0|0|-1|-1|3
2021-03-04 23:14:47.050 +0000|234802.2139047917|-0.176513671875|0.4906463623046875|0.3544158935546875|234802.1939417917|-1.444343312361324|-2.647666819229259|-0.9324088942684312|0.3776880502700806|1.724167585372925|1.219108700752258|0.07794913649559021|-0.544451892375946|-0.01837617158889771|XArbitraryZVertical|0.6550117121452487|0.5773202834188074|-0.182710804800262|-0.4519708688686682|-0.2825084626674652|0.8030577301979065|0.524678111076355|0|0|0|-1|-1|3
2021-03-04 23:14:47.069 +0000|234802.2338677917|-0.120361328125|0.6238250732421875|0.4550933837890625|234802.2139047917|-1.480329567867384|-2.639511654619349|-0.9460076191771968|-0.06140083074569702|1.954842686653137|1.256971001625061|0.06430262327194214|-0.4448756575584412|-0.1884412169456482|XArbitraryZVertical|0.6651011767315099|0.5603647542751088|-0.1766870463740151|-0.4608835187762803|-0.2814962267875671|0.8110867142677307|0.512736439704895|0|0|0|-1|-1|3
2021-03-04 23:14:47.090 +0000|234802.2538317917|-0.11761474609375|0.6901092529296875|0.50567626953125|234802.2338677917|-1.512118862800341|-2.625169409156094|-0.9601926333207641|0.4905356764793396|2.101720333099365|1.026194095611572|0.1682732105255127|-0.2578547596931458|-0.09366816282272339|XArbitraryZVertical|0.6741333779833469|0.5429913115667419|-0.1695055023741331|-0.4711397052887905|-0.2831108868122101|0.8193020224571228|0.4985907375812531|0|0|0|-1|-1|3
2021-03-04 23:14:47.110 +0000|234802.2737947917|-0.0876617431640625|0.5760955810546875|0.393890380859375|234802.2538317917|-1.523114151757987|-2.589913723262409|-0.9817724544401306|0.8251672983169556|2.344076156616211|0.8212335705757141|0.1392721235752106|-0.09521639347076416|-0.02215784788131714|XArbitraryZVertical|0.6784833645522076|0.5255720497187499|-0.1625436499500088|-0.486840649666162|-0.2911733388900757|0.8314833641052246|0.4731312990188599|0|0|0|-1|-1|3
2021-03-04 23:14:47.130 +0000|234802.2937577917|-0.07110595703125|0.356781005859375|0.3483123779296875|234802.2737947917|-1.519725438848142|-2.537174101608571|-1.007916080672518|1.262072324752808|2.59943699836731|0.4736232161521912|0.1811797022819519|-0.3135256767272949|-0.004741966724395752|XArbitraryZVertical|0.6800406924373301|0.5070368828175944|-0.1546746465435735|-0.5064918601192003|-0.3032500147819519|0.8457216620445251|0.4390834867954254|0|0|0|-1|-1|3
2021-03-04 23:14:47.150 +0000|234802.3137207917|-0.106719970703125|0.4689788818359375|0.289093017578125|234802.2937577917|-1.508821097817719|-2.476579704459287|-1.031007767775405|0.8431888818740845|2.566873073577881|0.4952141642570496|0.2476114332675934|-0.3746783137321472|-0.06248605251312256|XArbitraryZVertical|0.6804745157257337|0.4890523526029096|-0.1450461841658252|-0.526064532806185|-0.3171457350254059|0.8578173518180847|0.4044355452060699|0|0|0|-1|-1|3
2021-03-04 23:14:47.170 +0000|234802.3336847917|-0.1656951904296875|0.52117919921875|0.24993896484375|234802.3137207917|-1.508414906990081|-2.424311740335277|-1.046202792612254|0.2638209462165833|2.640147686004639|0.4785191714763641|0.2303278744220734|-0.4840424656867981|-0.07616227865219116|XArbitraryZVertical|0.6832057644635349|0.4711194226540005|-0.1327320138253794|-0.5419028755034919|-0.3292353749275208|0.8655275702476501|0.377447247505188|0|0|0|-1|-1|3
2021-03-04 23:14:47.190 +0000|234802.3536477917|-0.265228271484375|0.735198974609375|0.287353515625|234802.3336847917|-1.521377649075061|-2.382213751896122|-1.052819698092276|-0.1720557063817978|2.719923973083496|0.4220553636550903|0.218182235956192|-0.3899866342544556|-0.1044257879257202|XArbitraryZVertical|0.6885199140046598|0.4533076748407534|-0.1170945647577296|-0.5538424018503547|-0.3408781290054321|0.8688227534294128|0.35909503698349|0|0|0|-1|-1|3
2021-03-04 23:14:47.210 +0000|234802.3736107917|-0.3699493408203125|1.015655517578125|0.2730712890625|234802.3736107917|-1.536264764463756|-2.279046497210433|-1.064087203477176|0.6034457087516785|3.03752589225769|0.2683031857013702|0.05184602737426758|0.01489013433456421|-0.07992854714393616|XArbitraryZVertical|0.696446325406624|0.415702530269339|-0.08114833689418927|-0.5792830995232342|-0.3685879707336426|0.8743463158607483|0.3156921565532684|0|0|0|-1|-1|3
2021-03-04 23:14:47.229 +0000|234802.3935737917|-0.3649139404296875|0.93731689453125|0.41900634765625||||||||||||||||||||||||3
2021-03-04 23:14:47.250 +0000|234802.4135377917|-0.4132843017578125|0.681121826171875|0.478057861328125|234802.4135377917|-1.492693876620041|-2.11271697912848|-1.085990683677134|0.2336405366659164|3.3113853931427|0.1636993587017059|0.008744418621063232|-0.02818292379379272|0.2418653815984726|XArbitraryZVertical|0.6927218327756451|0.3745973439660746|-0.04422289553830699|-0.6147012729246529|-0.3992626070976257|0.8847655653953552|0.2403734177350998|0|0|0|-1|-1|3
2021-03-04 23:14:47.269 +0000|234802.4335007917|-0.425811767578125|0.674072265625|0.443389892578125||||||||||||||||||||||||3
2021-03-04 23:14:47.292 +0000|234802.4534637917|-0.4372711181640625|0.908660888671875|0.2627410888671875|234802.4335007917|-1.517884281924491|-2.068536452928333|-1.087779915999729|-1.230122208595276|3.277908563613892|0.6293820142745972|-0.01441821455955505|-0.2577140927314758|0.2737499475479126|XArbitraryZVertical|0.6980308579197166|0.3516067461577171|-0.02170449853610426|-0.6234216351970028|-0.4080976843833923|0.8855979442596436|0.2217487692832947|0|0|0|-1|-1|3
2021-03-04 23:14:47.310 +0000|234802.4734267917|-0.4037933349609375|1.226852416992188|0.0753173828125|234802.4534637917|-1.596552631339601|-2.074014664816936|-1.088584818514625|-1.687104821205139|3.183438777923584|1.122223734855652|-0.01539379358291626|-0.1668094992637634|0.1396744251251221|XArbitraryZVertical|0.7113164525987925|0.3253422431178399|0.0005966086044510155|-0.6230417747428812|-0.406252384185791|0.8859715461730957|0.2236373424530029|0|0|0|-1|-1|3
2021-03-04 23:14:47.329 +0000|234802.4933907917|-0.417633056640625|0.9865570068359375|0.0642547607421875|234802.4734267917|-1.671331899331219|-2.079020088003901|-1.095983178747326|-0.9681287407875061|2.972850322723389|1.174960255622864|-0.01004862785339355|0.2341265082359314|-0.09171938896179199|XArbitraryZVertical|0.7228838477957233|0.297783452492743|0.01952667476422026|-0.6232035787503276|-0.3993904590606689|0.8893781900405884|0.2224720865488052|0|0|0|-1|-1|3
2021-03-04 23:14:47.349 +0000|234802.5133537917|-0.36578369140625|1.04638671875|0.1542205810546875|234802.4933907917|-1.718511499550381|-2.062224561654764|-1.109819794705214|-0.1995069235563278|2.935199499130249|1.060032248497009|-0.02586239576339722|0.2260398268699646|-0.1449183225631714|XArbitraryZVertical|0.7290159702607603|0.2710876692505616|0.03563606882713286|-0.627516800577961|-0.3921826481819153|0.8956185579299927|0.2099056243896484|0|0|0|-1|-1|3
2021-03-04 23:14:47.369 +0000|234802.5333167917|-0.306549072265625|0.861846923828125|0.13568115234375|234802.5133537917|-1.732966684189166|-2.01715494353866|-1.128947846937175|0.3656984567642212|2.868238687515259|0.9146807789802551|-0.002040207386016846|0.1028274297714233|-0.07117414474487305|XArbitraryZVertical|0.7293890170359384|0.2455363714368425|0.05012809379314823|-0.6365459968958807|-0.3857161402702332|0.9039627909660339|0.1845929026603699|0|0|0|-1|-1|3
2021-03-04 23:14:47.390 +0000|234802.5532797917|-0.291229248046875|0.9335784912109375|0.0731353759765625|234802.5333167917|-1.733293245062781|-1.961005303606416|-1.147797452113472|0.3863062560558319|2.731451272964478|0.8255137801170349|0.03180038928985596|0.05705583095550537|0.03368914127349854|XArbitraryZVertical|0.7273760125616948|0.2213524516986223|0.06426351017840545|-0.6463725560491709|-0.3796397745609283|0.9118620157241821|0.1561455428600311|0|0|0|-1|-1|3
2021-03-04 23:14:47.429 +0000|234802.5732437917|-0.2509918212890625|0.882843017578125|-0.073577880859375|234802.5532797917|-1.727493056368632|-1.902314123805672|-1.164919855930906|0.4733745753765106|2.580139398574829|0.6856787800788879|0.06902012228965759|-0.006082534790039062|-0.02155801653862|XArbitraryZVertical|0.7243964627114894|0.1987542464376835|0.07782798980526587|-0.6555070558980377|-0.3733262717723846|0.9187567234039307|0.1285069733858109|0|0|0|-1|-1|3
2021-03-04 23:14:47.432 +0000|234802.5932067917|-0.2471160888671875|0.9149169921875|-0.1735992431640625|234802.5732437917|-1.713767341319447|-1.841045045189118|-1.180179372715115|0.4838383793830872|2.308096885681152|0.6018220186233521|0.1097219586372375|-0.04271626472473145|-0.07514715194702148|XArbitraryZVertical|0.7204102949170115|0.178423289170195|0.09019500902806046|-0.6641077398252098|-0.3669393956661224|0.9246743321418762|0.1016517281532288|0|0|0|-1|-1|3
2021-03-04 23:14:47.449 +0000|234802.6131697917|-0.2082061767578125|0.9457855224609375|-0.11749267578125|234802.5932067917|-1.695585273729051|-1.780724947372848|-1.192781033958376|0.5048421621322632|2.09787917137146|0.435237318277359|0.1123170852661133|-0.02714669704437256|-0.2137985229492188|XArbitraryZVertical|0.7160155110284442|0.1605546601541683|0.1014418118073972|-0.6717542224965891|-0.3609743714332581|0.9293989539146423|0.07691202312707901|0|0|0|-1|-1|3
2021-03-04 23:14:47.470 +0000|234802.6331327917|-0.1843109130859375|0.919403076171875|-0.098388671875|234802.6131697917|-1.674147672098557|-1.720341070998543|-1.203534931068668|0.5359562039375305|1.967926740646362|0.4389397501945496|0.115887314081192|-7.134675979614258e-05|-0.2136367559432983|XArbitraryZVertical|0.7113161549225985|0.144143053480277|0.1120314085969108|-0.6787497104425682|-0.3550536036491394|0.9333141446113586|0.05349578335881233|0|0|0|-1|-1|3
2021-03-04 23:14:47.489 +0000|234802.6530967917|-0.13702392578125|0.798614501953125|-0.0777130126953125|234802.6331327917|-1.630237423212964|-1.640187030708969|-1.212707085094604|1.172990202903748|1.96285617351532|0.2965358197689056|0.1555351316928864|0.01507681608200073|-0.1551603078842163|XArbitraryZVertical|0.7039007247704363|0.129128771146756|0.1222058307852067|-0.6876884545997255|-0.349642276763916|0.9365682005882263|0.02430094033479691|0|0|0|-1|-1|3
2021-03-04 23:14:47.509 +0000|234802.6730599167|-0.1617584228515625|0.5071258544921875|-0.0601348876953125|234802.6530967917|-1.552271136300607|-1.529090386058413|-1.218208069156827|1.465509295463562|1.838537096977234|0.2280401736497879|0.1908836960792542|-0.06531298160552979|-0.05690622329711914|XArbitraryZVertical|0.6923659327534605|0.1158895195661396|0.132026366169036|-0.6998344068882247|-0.3450280725955963|0.9384820461273193|-0.01439806912094355|0|0|0|-1|-1|3
2021-03-04 23:14:47.529 +0000|234802.6930229167|-0.1878509521484375|0.6520843505859375|-0.018157958984375|234802.6730599167|-1.494126362095513|-1.440098417117102|-1.219353911916155|0.4893842339515686|1.633703827857971|0.1400397568941116|0.1862567663192749|-0.2086677551269531|-0.01076841354370117|XArbitraryZVertical|0.6831698355384068|0.1041461169626852|0.1417567612461904|-0.7087578498101593|-0.3413166403770447|0.9388771057128906|-0.04486512392759323|0|0|0|-1|-1|3
2021-03-04 23:14:47.549 +0000|234802.7129859167|-0.2608642578125|1.17413330078125|0.0610504150390625|234802.6930229167|-1.481685700905886|-1.39700846130118|-1.222421350268693|-0.1592988818883896|1.526236176490784|0.1704863458871841|0.1788042187690735|-0.560091495513916|0.01055090874433517|XArbitraryZVertical|0.6797200843559913|0.092014117119251|0.1509662892924625|-0.7118450456353456|-0.3362292349338531|0.9399287104606628|-0.0590280182659626|0|0|0|-1|-1|3
2021-03-04 23:14:47.569 +0000|234802.7329499167|-0.4098358154296875|1.47796630859375|0.120819091796875|234802.7129859167|-1.506036993542927|-1.393032186894272|-1.224841204788462|-0.6244463920593262|1.053122043609619|-0.1091011837124825|0.1212579011917114|0.03164482116699219|0.06510430574417114|XArbitraryZVertical|0.6807208150597193|0.08147483551751858|0.160146951979532|-0.710164781263811|-0.3337518572807312|0.9407520294189453|-0.05996204540133476|0|0|0|-1|-1|3
2021-03-04 23:14:47.589 +0000|234802.7529129167|-0.7143707275390625|1.602249145507812|-0.16314697265625|234802.7329499167|-1.524018766037048|-1.392760099900712|-1.221596961441649|0.1927605867385864|0.924223005771637|-0.3537819683551788|0.06467354297637939|0.2750900983810425|0.1136021539568901|XArbitraryZVertical|0.6810785007040672|0.07639063999954782|0.1677278032838326|-0.7086353592764288|-0.3367378115653992|0.9396469593048096|-0.06059309095144272|0|0|0|-1|-1|3
2021-03-04 23:14:47.609 +0000|234802.7728759167|-0.4294891357421875|0.8567962646484375|0.11181640625|234802.7529129167|-1.507459999237804|-1.35785170289005|-1.210976680961047|0.2717843949794769|1.091517210006714|-0.5303981304168701|-0.2759038209915161|1.037413120269775|0.131466269493103|XArbitraryZVertical|0.6763250207025774|0.07333264906043627|0.1773171969262329|-0.7111718424462364|-0.3441523313522339|0.9359603524208069|-0.07441357523202896|0|0|0|-1|-1|3
2021-03-04 23:14:47.629 +0000|234802.7928389167|-0.466888427734375|1.020523071289062|0.2536468505859375|234802.7728759167|-1.543312932004664|-1.373307828706993|-1.203093658528263|-1.341070413589478|0.7433647513389587|-0.4353712499141693|-0.2725453972816467|0.2033341526985168|-0.03211473673582077|XArbitraryZVertical|0.678169277859054|0.06943256115725677|0.1874761090473261|-0.7071903426811622|-0.3524851500988007|0.9331556558609009|-0.07053110003471375|0|0|0|-1|-1|3
2021-03-04 23:14:47.649 +0000|234802.8128029167|-0.34521484375|0.9783477783203125|0.24609375|234802.7928389167|-1.651311742549512|-1.460149886512315|-1.204097031070978|-2.472591161727905|0.5818868279457092|-0.0969732403755188|-0.0693153440952301|-0.03719931840896606|0.3036127090454102|XArbitraryZVertical|0.6901389690206223|0.06255610510568482|0.1952599946817216|-0.6940234524188656|-0.3563438653945923|0.9335158467292786|-0.03958987444639206|0|0|0|-1|-1|3
2021-03-04 23:14:47.668 +0000|234802.8327659167|-0.3528289794921875|1.42626953125|0.332550048828125|234802.8128029167|-1.77720879286617|-1.569428069666528|-1.205592673465307|-1.774802684783936|0.292592465877533|0.00581883080303669|-0.04056572914123535|0.0445408821105957|0.2184605598449707|XArbitraryZVertical|0.7047427145990692|0.05561813368581212|0.1998388748888841|-0.6784606343493989|-0.3571394085884094|0.9340510368347168|-0.0004886588430963457|0|0|0|-1|-1|3
2021-03-04 23:14:47.688 +0000|234802.8527289167|-0.2885894775390625|1.3099365234375|0.3153533935546875|234802.8327659167|-1.835558944577884|-1.619861908473002|-1.205137974674315|-0.1954367905855179|0.1314532458782196|-0.05837710946798325|-0.01463118195533752|0.2898205518722534|0.275858998298645|XArbitraryZVertical|0.7113720869325842|0.05213717855465586|0.2018254207824983|-0.6711914861161373|-0.3571340143680573|0.9338885545730591|0.0175370629876852|0|0|0|-1|-1|3
2021-03-04 23:14:47.708 +0000|234802.8726919167|-0.2657928466796875|0.977630615234375|0.2611083984375|234802.8527289167|-1.804549107066253|-1.58934761686873|-1.202954848608001|1.149437069892883|0.0435292050242424|-0.1899933815002441|0.04202032089233398|0.5036160945892334|0.3491948843002319|XArbitraryZVertical|0.7074310633561302|0.05363435035682038|0.2029497997513424|-0.6748897091403844|-0.3595405220985413|0.9331057071685791|0.00667070597410202|0|0|0|-1|-1|3
2021-03-04 23:14:47.728 +0000|234802.8926549167|-0.212677001953125|0.9801025390625|0.2198486328125|234802.8726919167|-1.729442358356806|-1.517717258435874|-1.198700064705267|1.386893510818481|0.1245948076248169|-0.1834551393985748|0.09087091684341431|0.199337899684906|0.2805651426315308|XArbitraryZVertical|0.697914728727892|0.05718918035079626|0.2040431868369327|-0.6841132181966385|-0.3630572259426117|0.9315672516822815|-0.01928885839879513|0|0|0|-1|-1|3
2021-03-04 23:14:47.748 +0000|234802.9126189167|-0.215423583984375|1.105453491210938|0.1623382568359375|234802.8926549167|-1.667273704284101|-1.457405930594356|-1.193992459110477|0.8945702314376831|0.09663455188274384|-0.08787614852190018|0.1443962454795837|-0.007466793060302734|0.2990790605545044|XArbitraryZVertical|0.6896538312333492|0.05967608572320229|0.2051816901642095|-0.6918936995827576|-0.3655876815319061|0.92984539270401|-0.04163271561264992|0|0|0|-1|-1|3
2021-03-04 23:14:47.768 +0000|234802.9325819167|-0.2291412353515625|1.003082275390625|0.024658203125|234802.9126189167|-1.627564506531114|-1.419570136929149|-1.191360806220678|0.5270401835441589|0.04826175048947334|0.02700498700141907|0.1487922668457031|0.1190387606620789|0.2066030502319336|XArbitraryZVertical|0.6843721468870407|0.06111120408172888|0.2052863408995951|-0.6969632384022072|-0.3661690354347229|0.9288738369941711|-0.05580037087202072|0|0|0|-1|-1|3
2021-03-04 23:14:47.788 +0000|234802.9525449167|-0.1823577880859375|0.88134765625|0.0388031005859375|234802.9325819167|-1.602035385953913|-1.394234460944022|-1.190542797740348|0.4347841143608093|0.1142132803797722|0.06573756039142609|0.1517017483711243|0.1354095339775085|0.1558750867843628|XArbitraryZVertical|0.6809190251386724|0.06126378485158199|0.2052939897360511|-0.7003217012907731|-0.365385890007019|0.928570568561554|-0.06519205868244171|0|0|0|-1|-1|3
2021-03-04 23:14:47.808 +0000|234802.9725079167|-0.1844940185546875|0.89166259765625|0.0501251220703125|234802.9525449167|-1.580456920446497|-1.371464094387418|-1.191587213871477|0.3713903427124023|0.1628483533859253|0.1883920133113861|0.150499552488327|0.02955371141433716|0.09681618213653564|XArbitraryZVertical|0.678026861218635|0.06023614780657752|0.205104015510246|-0.7032664245665885|-0.3628561794757843|0.9289577007293701|-0.07330236583948135|0|0|0|-1|-1|3
2021-03-04 23:14:47.828 +0000|234802.9924719167|-0.252471923828125|0.9697113037109375|0.0785064697265625|234802.9725079167|-1.551245404197335|-1.340528383862446|-1.193404088557704|0.6949693560600281|0.1901469379663467|0.2186853885650635|0.1865604519844055|-0.07643353939056396|0.1319721937179565|XArbitraryZVertical|0.6741793382077531|0.05856253704426284|0.2046465624499942|-0.7072287289074347|-0.3587711751461029|0.9296287298202515|-0.08410529792308807|0|0|0|-1|-1|3
2021-03-04 23:14:47.848 +0000|234803.0124349167|-0.369781494140625|0.977783203125|0.1055145263671875|234802.9924719167|-1.501541765231219|-1.290524096618177|-1.193308206259897|1.06745171546936|0.1851368397474289|0.2057180106639862|0.1385519504547119|0.01539862155914307|0.1596662402153015|XArbitraryZVertical|0.6676184878037488|0.05750514718507327|0.2037954906263746|-0.7137549432531075|-0.3542044460773468|0.9295933842658997|-0.1019574254751205|0|0|0|-1|-1|3
2021-03-04 23:14:47.869 +0000|234803.0323979167|-0.470367431640625|0.8513336181640625|0.229156494140625|234803.0124349167|-1.441042887943915|-1.230784820706098|-1.189082704280265|1.069074273109436|0.1756076663732529|0.08239696174860001|0.04166090488433838|0.04871797561645508|0.225687563419342|XArbitraryZVertical|0.659216290298447|0.05760189438230517|0.2033084248071607|-0.7216520355575297|-0.3511855006217957|0.9280276298522949|-0.1242318078875542|0|0|0|-1|-1|3
2021-03-04 23:14:47.888 +0000|234803.0523609167|-0.5254058837890625|0.8623199462890625|0.239227294921875|234803.0323979167|-1.404274145152238|-1.192597681730196|-1.18542510719433|0.2699784338474274|0.257274717092514|0.06643344461917877|-0.07525226473808289|0.006583869457244873|0.2714764475822449|XArbitraryZVertical|0.653711716773243|0.05709969010598462|0.2037334125645944|-0.7265627638109516|-0.3493388593196869|0.9266589283943176|-0.1388012319803238|0|0|0|-1|-1|3
2021-03-04 23:14:47.921 +0000|234803.0723249167|-0.55816650390625|0.7379608154296875|0.2036895751953125|234803.0723249167|-1.434798225927578|-1.206476235385364|-1.19312366550311|-0.5087559223175049|0.4639875888824463|-0.02838600985705853|-0.214862197637558|-0.09520518779754639|0.3504491448402405|XArbitraryZVertical|0.6571560673141255|0.04948691690930859|0.2077206983632418|-0.7228756899936526|-0.3445556163787842|0.9295253753662109|-0.1313938945531845|0|0|0|-1|-1|3
2021-03-04 23:14:47.928 +0000|234803.0922879167|-0.5529022216796875|0.8204345703125|0.21533203125||||||||||||||||||||||||3
2021-03-04 23:14:47.948 +0000|234803.1122509167|-0.5086822509765625|0.768890380859375|0.2816925048828125|234803.0922879167|-1.454417753609961|-1.215179068077647|-1.194169109268048|-0.1715879142284393|0.5016762614250183|-0.1154125183820724|-0.2300851345062256|-0.1562744975090027|0.3000642061233521|XArbitraryZVertical|0.6586921045176967|0.04581277366282566|0.2115934009715518|-0.7205929294158451|-0.3447745144367218|0.9299103617668152|-0.1280518025159836|0|0|0|-1|-1|3
2021-03-04 23:14:47.968 +0000|234803.1322139167|-0.4811553955078125|0.5862884521484375|0.235107421875|234803.1122509167|-1.455426571876192|-1.205697053644875|-1.190440655479323|0.2055990099906921|0.5375693440437317|-0.2543606460094452|-0.160909116268158|-0.131718635559082|0.4009391665458679|XArbitraryZVertical|0.65714869805544|0.04335268642728199|0.2163041479359129|-0.7207557328111845|-0.3467813730239868|0.9285326600074768|-0.1325522661209106|0|0|0|-1|-1|3
2021-03-04 23:14:47.988 +0000|234803.1521779167|-0.439910888671875|0.635589599609375|0.222198486328125|234803.1322139167|-1.451331230685363|-1.19078353837449|-1.182442516000737|0.2186286151409149|0.5833301544189453|-0.4414218664169312|-0.1421229541301727|-0.2424434423446655|0.4092276692390442|XArbitraryZVertical|0.6542168683234337|0.04207893059437065|0.2223407119581003|-0.7216608382553343|-0.351651519536972|0.925533652305603|-0.1404592990875244|0|0|0|-1|-1|3
2021-03-04 23:14:48.008 +0000|234803.1721409167|-0.444976806640625|0.6935272216796875|0.050140380859375|234803.1721409167|-1.486018845952103|-1.198556407442795|-1.163246963413157|-0.5312762260437012|0.5764985084533691|-0.6874867677688599|-0.09957969188690186|-0.1794931888580322|0.2318041324615479|XArbitraryZVertical|0.6529212503416697|0.04018756611176816|0.2385638644620861|-0.7177508131154328|-0.3692161440849304|0.9180949330329895|-0.1441576033830643|0|0|0|-1|-1|3
2021-03-04 23:14:48.028 +0000|234803.1921039167|-0.4316253662109375|0.6897430419921875|-0.023834228515625||||||||||||||||||||||||3
2021-03-04 23:14:48.048 +0000|234803.2120669167|-0.421539306640625|0.7005157470703125|0.109527587890625|234803.1921039167|-1.533881216685899|-1.23156173434103|-1.153547943479504|-0.8721851706504822|0.5697891116142273|-0.9071109890937805|-0.03058356046676636|-0.2654342651367188|0.1788432002067566|XArbitraryZVertical|0.6565043674337823|0.03969866232254096|0.2480400198639232|-0.7112680760365777|-0.3821514844894409|0.9142074584960938|-0.1348520666360855|0|0|0|-1|-1|3
2021-03-04 23:14:48.068 +0000|234803.2320299167|-0.5254669189453125|0.9083099365234375|-0.060394287109375|234803.2120669167|-1.592430462080837|-1.271567198003475|-1.140127984274442|-0.8950147032737732|0.7163652777671814|-1.109455227851868|-0.05003237724304199|-0.2027086615562439|0.2274968773126602|XArbitraryZVertical|0.6610018697601895|0.0392896062927395|0.2599847375461251|-0.7028091543079444|-0.3989269733428955|0.9086869359016418|-0.123065710067749|0|0|0|-1|-1|3
2021-03-04 23:14:48.088 +0000|234803.2519939167|-0.532318115234375|0.9451446533203125|-0.16973876953125|234803.2320299167|-1.649082845689522|-1.308819395605148|-1.12385015553799|-0.9776408672332764|0.759132444858551|-1.105550765991211|-0.02589309215545654|-0.1407240033149719|0.127945750951767|XArbitraryZVertical|0.6651960278836758|0.03930203326035436|0.2727915128233453|-0.6939411055811704|-0.4174662530422211|0.9017711877822876|-0.1119391918182373|0|0|0|-1|-1|3
2021-03-04 23:14:48.108 +0000|234803.2719569167|-0.467559814453125|0.957977294921875|-0.199066162109375|234803.2519939167|-1.7037233696033|-1.340567270339468|-1.108129677386479|-1.089120745658875|0.9275180697441101|-0.9790520668029785|-0.1312369406223297|0.1166090965270996|-0.03112625330686569|XArbitraryZVertical|0.669071060428477|0.03764123812384584|0.2862196542528868|-0.6848396512520768|-0.4345589876174927|0.8948654532432556|-0.101854108273983|0|0|0|-1|-1|3
2021-03-04 23:14:48.128 +0000|234803.2919199167|-0.399993896484375|1.025985717773438|-0.2352294921875|234803.2719569167|-1.761324159764727|-1.372474408718376|-1.095890378091969|-1.15600049495697|0.9824365377426147|-0.7359576821327209|-0.07351267337799072|0.01055139303207397|-0.08543139696121216|XArbitraryZVertical|0.6736685197529677|0.03354875618817538|0.2991113041748374|-0.6749650078137334|-0.4482922255992889|0.8893357515335083|-0.09009041637182236|0|0|0|-1|-1|3
2021-03-04 23:14:48.148 +0000|234803.3118829167|-0.34368896484375|0.9912567138671875|-0.319549560546875|234803.2919199167|-1.812500580338868|-1.398118436831491|-1.087915235560962|-0.9850689172744751|0.994073748588562|-0.4830101430416107|0.03163087368011475|0.1265462636947632|-0.1417449116706848|XArbitraryZVertical|0.6777462980212525|0.02772863879688203|0.3102108695854647|-0.6660783454645703|-0.457427442073822|0.8856608271598816|-0.0797821581363678|0|0|0|-1|-1|3
2021-03-04 23:14:48.168 +0000|234803.3318469167|-0.339080810546875|0.965240478515625|-0.3660736083984375|234803.3118829167|-1.852732196049249|-1.414891893089284|-1.083156787351485|-0.7586269974708557|0.8853092789649963|-0.30109903216362|0.1122426688671112|0.09363996982574463|-0.1899583339691162|XArbitraryZVertical|0.6805648335986769|0.02134031411976953|0.3193890086974433|-0.6590650681628821|-0.4628591537475586|0.8834412693977356|-0.0727522000670433|0|0|0|-1|-1|3
2021-03-04 23:14:48.188 +0000|234803.3518099167|-0.35968017578125|0.96478271484375|-0.3329010009765625|234803.3318469167|-1.881142880373268|-1.423136334441111|-1.079925147432875|-0.5524783730506897|0.8013488054275513|-0.2334146946668625|0.1258257627487183|0.1331226229667664|-0.2835060358047485|XArbitraryZVertical|0.681969146589928|0.01553623259185161|0.3269515591393639|-0.6540484416890553|-0.4662646353244781|0.8819225430488586|-0.06935341656208038|0|0|0|-1|-1|3
2021-03-04 23:14:48.207 +0000|234803.3717729167|-0.38494873046875|0.89959716796875|-0.284637451171875|234803.3518099167|-1.903733306632003|-1.427548333666973|-1.076619171272674|-0.494728684425354|0.7534355521202087|-0.2620766162872314|0.1309789419174194|0.05404317378997803|-0.289573073387146|XArbitraryZVertical|0.6826674120620581|0.0104627265446211|0.3338739767988879|-0.6499107307762825|-0.4694494307041168|0.8803592920303345|-0.0677114725112915|0|0|0|-1|-1|3
2021-03-04 23:14:48.228 +0000|234803.3917359167|-0.405303955078125|0.8550872802734375|-0.25592041015625|234803.3717729167|-1.926042378318872|-1.432157284303266|-1.071879225018872|-0.4918248653411865|0.766227126121521|-0.361005425453186|0.09947910904884338|0.07764828205108643|-0.2488183379173279|XArbitraryZVertical|0.6833021737499708|0.006052005684630685|0.3410425148295817|-0.6455629973571649|-0.4738840758800507|0.8781012296676636|-0.06612302362918854|0|0|0|-1|-1|3
2021-03-04 23:14:48.247 +0000|234803.4116999167|-0.39202880859375|0.8455657958984375|-0.21563720703125|234803.3917359167|-1.94957734202593|-1.436748440806054|-1.06488751716668|-0.5442462563514709|0.8443745970726013|-0.4783894717693329|0.08126845955848694|-0.008019983768463135|-0.2076647877693176|XArbitraryZVertical|0.683822446416025|0.002015917077763524|0.3492664185868022|-0.640621416477313|-0.4802553057670593|0.8747344017028809|-0.06476559489965439|0|0|0|-1|-1|3
2021-03-04 23:14:48.267 +0000|234803.4316629167|-0.4095458984375|0.7923736572265625|-0.2111053466796875|234803.4116999167|-1.977363841601623|-1.443675762642799|-1.056796610592176|-0.7284795045852661|0.8792011737823486|-0.4811223149299622|0.09000718593597412|-0.01900869607925415|-0.1616970896720886|XArbitraryZVertical|0.6847103381684599|-0.002351153638950415|0.3583131330166785|-0.6346479778027456|-0.4876970946788788|0.8707849383354187|-0.06233245134353638|0|0|0|-1|-1|3
2021-03-04 23:14:48.287 +0000|234803.4516259167|-0.408843994140625|0.7664031982421875|-0.2158203125|234803.4316629167|-2.014063744807188|-1.457867323549419|-1.049789467176595|-0.9872068762779236|0.8956320285797119|-0.4503640532493591|0.1020357608795166|-0.05951803922653198|-0.1550137996673584|XArbitraryZVertical|0.6869436022639427|-0.007921818648407769|0.3672195662881161|-0.6270531924874051|-0.4945834577083588|0.8673184514045715|-0.05609146505594254|0|0|0|-1|-1|3
2021-03-04 23:14:48.307 +0000|234803.4715889167|-0.3828887939453125|0.764190673828125|-0.2022857666015625|234803.4516259167|-2.055969770975997|-1.47653206973792|-1.043581674731522|-1.023077607154846|0.8634118437767029|-0.4012628197669983|0.09613990783691406|-0.0902554988861084|-0.1804263591766357|XArbitraryZVertical|0.6900125817515745|-0.01429101732257171|0.3757692775238101|-0.618446373376827|-0.5008946061134338|0.8642117977142334|-0.04735680669546127|0|0|0|-1|-1|3
2021-03-04 23:14:48.327 +0000|234803.4915529167|-0.368865966796875|0.768310546875|-0.1220245361328125|234803.4715889167|-2.09226986038786|-1.491410291988504|-1.037335909570456|-0.7272900938987732|0.771643340587616|-0.3757095336914062|0.1195089221000671|-0.1097098588943481|-0.1764854192733765|XArbitraryZVertical|0.692413320565735|-0.02001147525607758|0.3836984433533931|-0.6106871307679873|-0.5069143176078796|0.8610525727272034|-0.04032666981220245|0|0|0|-1|-1|3
2021-03-04 23:14:48.347 +0000|234803.5115159167|-0.3867645263671875|0.797271728515625|-0.0355224609375|234803.4915529167|-2.116362680604856|-1.497965499205176|-1.030837685692489|-0.4896342754364014|0.6476271748542786|-0.3628398776054382|0.141170859336853|-0.08874803781509399|-0.1249899864196777|XArbitraryZVertical|0.6933384026735556|-0.02402540145793827|0.3907247840603157|-0.6050114214788703|-0.5127376914024353|0.857729971408844|-0.03740927949547768|0|0|0|-1|-1|3
2021-03-04 23:14:48.367 +0000|234803.5314789167|-0.4332427978515625|0.759674072265625|-0.0478515625|234803.5115159167|-2.136859328342084|-1.503999867402113|-1.024698949232908|-0.5789156556129456|0.5085832476615906|-0.3224843144416809|0.1461886763572693|-0.06808942556381226|-0.02667492255568504|XArbitraryZVertical|0.6942135265620991|-0.02710903685018506|0.3966565011712415|-0.5999968974513943|-0.5181979537010193|0.8545578718185425|-0.03466536104679108|0|0|0|-1|-1|3
2021-03-04 23:14:48.387 +0000|234803.5514419167|-0.447723388671875|0.8081512451171875|-0.0687255859375|234803.5314789167|-2.160426531180017|-1.515765465777697|-1.019671578251768|-0.5679298639297485|0.3107538819313049|-0.2911261916160583|0.1348222494125366|-0.07292908430099487|0.005196869373321533|XArbitraryZVertical|0.6962039989032875|-0.02998195693159586|0.4011080482625096|-0.5945700427500641|-0.5228533148765564|0.8519361019134521|-0.02880214899778366|0|0|0|-1|-1|3
2021-03-04 23:14:48.409 +0000|234803.5714049167|-0.49609375|0.9493560791015625|0.0006561279296875|234803.5514419167|-2.180496268980314|-1.528763698843374|-1.014143831454757|-0.4504493772983551|0.09370630234479904|-0.3131765723228455|0.06779748201370239|-0.08676040172576904|-0.0397646427154541|XArbitraryZVertical|0.6985190686130599|-0.03115236011582456|0.4041566605339406|-0.589710201369904|-0.5278805494308472|0.8490285277366638|-0.02220128290355206|0|0|0|-1|-1|3
2021-03-04 23:14:48.427 +0000|234803.5913689167|-0.55950927734375|1.052581787109375|0.056121826171875|234803.5714049167|-2.196016826807942|-1.541720047115564|-1.008046744891683|-0.3497783243656158|-0.05591072142124176|-0.3260112106800079|0.06928384304046631|0.04700040817260742|-0.0291215181350708|XArbitraryZVertical|0.7009339820800243|-0.03059976613898463|0.4059778709012453|-0.5856084419954096|-0.5332884192466736|0.8457913994789124|-0.01551041379570961|0|0|0|-1|-1|3
2021-03-04 23:14:48.447 +0000|234803.6113319167|-0.628082275390625|1.1168212890625|0.2159576416015625|234803.5913689167|-2.209899481939464|-1.554949681843401|-1.001273747710187|-0.431179016828537|-0.1315623968839645|-0.375702977180481|0.01706779003143311|0.1796005368232727|0.0837094783782959|XArbitraryZVertical|0.7034733494300899|-0.02920496573309631|0.4073624801925742|-0.5816599142985299|-0.5391625761985779|0.8421584963798523|-0.008544633165001869|0|0|0|-1|-1|3
2021-03-04 23:14:48.468 +0000|234803.6312949167|-0.679840087890625|1.102264404296875|0.2644500732421875|234803.6113319167|-2.226538537539008|-1.572166961791356|-0.9922878737447924|-0.4789465963840485|-0.2033798545598984|-0.5448830723762512|-0.05539757013320923|0.2030652165412903|0.1167738437652588|XArbitraryZVertical|0.7068598718062865|-0.02690421123802361|0.4087135888200736|-0.5766962602198695|-0.5467753410339355|0.8372791409492493|0.0007494299206882715|0|0|0|-1|-1|3
2021-03-04 23:14:48.487 +0000|234803.6512579167|-0.5859527587890625|1.000411987304688|0.16339111328125|234803.6312949167|-2.244209725074738|-1.591743251807592|-0.9798991054491439|-0.5596500635147095|-0.2873299419879913|-0.6371070146560669|-0.09822827577590942|0.2768891453742981|0.2241405248641968|XArbitraryZVertical|0.710842217392897|-0.02318938760596298|0.4103964157056913|-0.5707366999032684|-0.5569841265678406|0.8304411768913269|0.01166881155222654|0|0|0|-1|-1|3
2021-03-04 23:14:48.507 +0000|234803.6712220417|-0.4608154296875|0.9859161376953125|-0.0250244140625|234803.6512579167|-2.266996396957598|-1.617199296274215|-0.9678878074468723|-0.8436757922172546|-0.3540590107440948|-0.471669614315033|-0.07152450084686279|0.236002504825592|0.2133973836898804|XArbitraryZVertical|0.7160694778075277|-0.01989893989427638|0.4111788011878202|-0.5637203045454343|-0.5664303302764893|0.823689877986908|0.02630292996764183|0|0|0|-1|-1|3
2021-03-04 23:14:48.527 +0000|234803.6911850417|-0.413299560546875|0.952117919921875|-0.0599517822265625|234803.6712220417|-2.295993021509986|-1.649762158543524|-0.959967872587111|-0.7817278504371643|-0.4978446364402771|-0.2307875901460648|0.06850904226303101|0.1512096524238586|-0.01283382996916771|XArbitraryZVertical|0.7226898574118207|-0.01846974436425131|0.4097939949746779|-0.5562798157884522|-0.5717592239379883|0.8191731572151184|0.0452435240149498|0|0|0|-1|-1|3
2021-03-04 23:14:48.547 +0000|234803.7111480417|-0.4418792724609375|0.8890533447265625|0.02789306640625|234803.6911850417|-2.313409668977173|-1.674859189521511|-0.9556522889804684|-0.2363980859518051|-0.5808690786361694|-0.1363401710987091|0.1391858458518982|0.1705381870269775|-0.1369855403900146|XArbitraryZVertical|0.7278079975396841|-0.0163544035143833|0.4067057161922136|-0.551922676386609|-0.5739546418190002|0.8166903257369995|0.05994389578700066|0|0|0|-1|-1|3
2021-03-04 23:14:48.567 +0000|234803.7311110417|-0.58837890625|0.832366943359375|-0.0222625732421875|234803.7111480417|-2.313857729789855|-1.687423261922868|-0.9529344591455654|0.1980343610048294|-0.6179513335227966|-0.1300561726093292|0.16749107837677|0.1011713743209839|-0.07641088962554932|XArbitraryZVertical|0.7304498644690234|-0.01212840619248201|0.4029917105070868|-0.5512655079303876|-0.575358510017395|0.8151189088821411|0.06740820407867432|0|0|0|-1|-1|3
2021-03-04 23:14:48.587 +0000|234803.7510740417|-0.7518157958984375|0.732330322265625|-0.0743865966796875|234803.7311110417|-2.302140369156886|-1.689361652104738|-0.9510296607796634|0.4459285140037537|-0.484548956155777|-0.135383665561676|0.07293742895126343|0.0692104697227478|-0.03716696053743362|XArbitraryZVertical|0.7309644296443176|-0.00666595351939972|0.3995694320660047|-0.5531643910665731|-0.5767673254013062|0.8140140175819397|0.06870686262845993|0|0|0|-1|-1|3
2021-03-04 23:14:48.607 +0000|234803.7710380417|-0.895050048828125|0.4676055908203125|0.00885009765625|234803.7510740417|-2.280996207076755|-1.678245691350993|-0.9497044961497465|0.7235093116760254|-0.1086781695485115|-0.1290585547685623|-0.09548968076705933|-0.05234891176223755|-0.109892375767231|XArbitraryZVertical|0.7288353818302693|-0.001583883668824032|0.3981227415624212|-0.5570410271715933|-0.5785673260688782|0.813243567943573|0.06240704655647278|0|0|0|-1|-1|3
2021-03-04 23:14:48.627 +0000|234803.7910010417|-0.9587249755859375|0.4520111083984375|0.0515594482421875|234803.7710380417|-2.260889744249352|-1.658681842477181|-0.9484505028686451|0.3059724271297455|0.4512882828712463|-0.1283740401268005|-0.2452653646469116|-0.1914653182029724|-0.1075321510434151|XArbitraryZVertical|0.7249708093475805|0.000686011783593371|0.3999633143735751|-0.5607549717865995|-0.5806928277015686|0.8125132322311401|0.05116628855466843|0|0|0|-1|-1|3
2021-03-04 23:14:48.646 +0000|234803.8109640417|-0.8350067138671875|0.2210540771484375|0.0332489013671875|234803.7910010417|-2.264279299675674|-1.647538594166764|-0.9459239269500994|-0.5278551578521729|0.9191102981567383|-0.08522745221853256|-0.3538922071456909|-0.3788630962371826|0.01761984825134277|XArbitraryZVertical|0.722784242069223|-0.002791975266441371|0.4056510221411188|-0.5594841372366098|-0.5832722187042236|0.8110377788543701|0.04484971240162849|0|0|0|-1|-1|3
2021-03-04 23:14:48.667 +0000|234803.8309270417|-0.7318115234375|0.0273284912109375|-0.2183074951171875|234803.8109640417|-2.297122643577897|-1.652457098329369|-0.9438441669528853|-1.313966155052185|1.222919702529907|0.01725701987743378|-0.3409503102302551|-0.4186604619026184|0.01183699816465378|XArbitraryZVertical|0.7237190843861551|-0.01258609582575557|0.4135765888312711|-0.5522921528949557|-0.5847241282463074|0.8098194003105164|0.047855444252491|0|0|0|-1|-1|3
2021-03-04 23:14:48.687 +0000|234803.8508910417|-0.6411285400390625|-0.103546142578125|-0.3135833740234375|234803.8309270417|-2.344534391016901|-1.665098634957603|-0.9421066919690529|-1.406676650047302|1.343145966529846|0.04827769845724106|-0.1842724680900574|-0.7157508134841919|-0.1449141502380371|XArbitraryZVertical|0.7259659327867696|-0.02571549962357089|0.4224388465312919|-0.5420862891808266|-0.5854724049568176|0.8087987899780273|0.05537564679980278|0|0|0|-1|-1|3
2021-03-04 23:14:48.707 +0000|234803.8708540417|-0.621978759765625|0.055694580078125|-0.215179443359375|234803.8508910417|-2.38381784956614|-1.669352230281771|-0.9389826806069296|-0.8454132080078125|1.408068299293518|-0.187822625041008|-0.09328693151473999|-0.8939478993415833|-0.3701865673065186|XArbitraryZVertical|0.7263816373526722|-0.03777102246111613|0.4322839680426365|-0.5329857096300874|-0.5877434611320496|0.8069576621055603|0.05811386555433273|0|0|0|-1|-1|3
2021-03-04 23:14:48.726 +0000|234803.8908170417|-0.7270660400390625|0.2524566650390625|-0.0852203369140625|234803.8708540417|-2.398806555764223|-1.652625995342989|-0.92966055379358|-0.1577753871679306|1.47324526309967|-0.6883657574653625|-0.02207446098327637|-0.8296762108802795|-0.3119497299194336|XArbitraryZVertical|0.7228194269938881|-0.04445441571288461|0.4447592552262178|-0.5270153984018359|-0.5961049199104309|0.8014169335365295|0.04888824000954628|0|0|0|-1|-1|3
2021-03-04 23:14:48.746 +0000|234803.9107800417|-0.7148590087890625|0.3997650146484375|-0.002655029296875|234803.8908170417|-2.395396713508457|-1.618856072645545|-0.9102428924117462|0.09164708852767944|1.667635560035706|-1.262039542198181|-0.07271647453308105|-0.6449994444847107|-0.1970630884170532|XArbitraryZVertical|0.7160144863047578|-0.04540052686375776|0.4610666779996903|-0.522187375176521|-0.6128456592559814|0.7896527647972107|0.02947590500116348|0|0|0|-1|-1|3
2021-03-04 23:14:48.767 +0000|234803.9307430417|-0.6957855224609375|0.5732421875|-0.1781768798828125|234803.9107800417|-2.396940808861484|-1.584559484700802|-0.8796938624970136|-0.3165933191776276|1.885720252990723|-1.781139135360718|-0.07748651504516602|-0.4516198635101318|-0.01272416114807129|XArbitraryZVertical|0.7088262240955291|-0.04417550643783311|0.4815686712690858|-0.5135226959033132|-0.6373267769813538|0.7705438137054443|0.008772182278335094|0|0|0|-1|-1|3
2021-03-04 23:14:48.786 +0000|234803.9507070417|-0.6553802490234375|0.8888397216796875|-0.21856689453125|234803.9307430417|-2.414811108091548|-1.55836269957197|-0.8398001407208587|-0.7733559608459473|2.088716983795166|-2.198775291442871|-0.04439979791641235|-0.2529478073120117|-0.07313549518585205|XArbitraryZVertical|0.7028495071947501|-0.04303788607264555|0.5054318100901563|-0.498687319237223|-0.6675601005554199|0.7445096969604492|-0.008300621062517166|0|0|0|-1|-1|3
