loggingTime(txt)|accelerometerTimestamp_sinceReboot(s)|accelerometerAccelerationX(G)|accelerometerAccelerationY(G)|accelerometerAccelerationZ(G)|motionTimestamp_sinceReboot(s)|motionYaw(rad)|motionRoll(rad)|motionPitch(rad)|motionRotationRateX(rad/s)|motionRotationRateY(rad/s)|motionRotationRateZ(rad/s)|motionUserAccelerationX(G)|motionUserAccelerationY(G)|motionUserAccelerationZ(G)|motionAttitudeReferenceFrame(txt)|motionQuaternionX(R)|motionQuaternionY(R)|motionQuaternionZ(R)|motionQuaternionW(R)|motionGravityX(G)|motionGravityY(G)|motionGravityZ(G)|motionMagneticFieldX(µT)|motionMagneticFieldY(µT)|motionMagneticFieldZ(µT)|motionHeading(°)|motionMagneticFieldCalibrationAccuracy(Z)|altimeterTimestamp_sinceReboot(s)|altimeterReset(bool)|altimeterRelativeAltitude(m)|altimeterPressure(kPa)|label
2021-02-10 21:22:18.617 +0000|26538.38446279167|0.169677734375|0.0911712646484375|-0.987030029296875|26538.36449879167|0.3180456256218821|0.1645274744007684|-0.09048080839384767|-0.01367095392197371|-0.007860242389142513|-0.0003688151482492685|0.004120141267776489|-0.005243889987468719|0.006828844547271729|XArbitraryZVertical|-0.05750207750171984|0.07391386437403742|0.1539871408470334|0.9836250743201269|0.1631162166595459|0.09035740047693253|-0.9824604988098145|0|0|0|-1|-1|634684936.5312992|0|0.1100006|100.0114|3
2021-02-10 21:22:18.637 +0000|26538.40442779167|0.1711578369140625|0.0771942138671875|-0.985809326171875|26538.38446279167|0.318052090605293|0.1643287015168761|-0.09107014736747231|-0.0316973440349102|-0.007560955826193094|0.007368999533355236|0.01022934913635254|0.002744652330875397|-0.00297236442565918|XArbitraryZVertical|-0.05777650777848616|0.07376837738602074|0.1539700681319818|0.9836226026743434|0.1629121899604797|0.0909443125128746|-0.982440173625946|0|0|0|-1|-1|634684936.5312992|0|0.1100006|100.0114|3
2021-02-10 21:22:18.657 +0000|26538.42439179167|0.1503448486328125|0.087890625|-0.9833221435546875|26538.40442779167|0.318423737419505|0.1644811527528656|-0.09155883108389945|-0.0117612686008215|0.001317649148404598|0.02602062560617924|-0.005904346704483032|-0.006958305835723877|-0.004506051540374756|XArbitraryZVertical|-0.05804200642144716|0.07379314417570358|0.1541268822918113|0.983580539159603|0.1630546748638153|0.09143096208572388|-0.9823713898658752|0|0|0|-1|-1|634684936.5312992|0|0.1100006|100.0114|3
2021-02-10 21:22:18.677 +0000|26538.44435579167|0.1545562744140625|0.1008148193359375|-0.9849395751953125|26538.42439179167|0.3188538177354238|0.1646093949670816|-0.09152127535359586|-0.0120408171787858|0.008884435519576073|0.01237130351364613|-0.01391968131065369|-0.005166150629520416|-0.002570450305938721|XArbitraryZVertical|-0.05804932109949895|0.07384676310984356|0.1543363195964723|0.9835432702731373|0.1631812155246735|0.09139356017112732|-0.9823538661003113|0|0|0|-1|-1|634684936.5312992|0|0.1100006|100.0114|3
2021-02-10 21:22:18.697 +0000|26538.46431979167|0.1527862548828125|0.0975494384765625|-0.984161376953125|26538.46431979167|0.3188878669218663|0.1648564340216911|-0.09131204849941299|0.009226005524396896|-0.001619870308786631|-0.01116127520799637|-0.01119004189968109|0.004365317523479462|-0.001935780048370361|XArbitraryZVertical|-0.05796688334575908|0.07398418886920749|0.1543551536422837|0.9835347775224395|0.1634270250797272|0.09118521213531494|-0.9823323488235474|0|0|0|-1|-1|634684936.5312992|0|0.1100006|100.0114|3
2021-02-10 21:22:18.716 +0000|26538.48428379167|0.1565399169921875|0.0845794677734375|-0.9828948974609375|26538.46431979167|0.3188878669218663|0.1648564340216911|-0.09131204849941299|0.009226005524396896|-0.001619870308786631|-0.01116127520799637|-0.01119004189968109|0.004365317523479462|-0.001935780048370361|XArbitraryZVertical|-0.05796688334575908|0.07398418886920749|0.1543551536422837|0.9835347775224395|0.1634270250797272|0.09118521213531494|-0.9823323488235474|0|0|0|-1|-1|634684936.5312992|0|0.1100006|100.0114|3
2021-02-10 21:22:18.736 +0000|26538.50424779167|0.1613922119140625|0.081329345703125|-0.9758453369140625|26538.48428379167|0.3185373017613891|0.1647424473171079|-0.09099311369578163|0.005556735210120678|-0.001522345934063196|-0.01714362390339375|-0.006779834628105164|-0.003816209733486176|-0.001507103443145752|XArbitraryZVertical|-0.05778846337080318|0.07396405685435081|0.1542001368595657|0.983571181520224|0.1633198112249374|0.09086760133504868|-0.9823796153068542|0|0|0|-1|-1|634684936.5312992|0|0.1100006|100.0114|3
2021-02-10 21:22:18.756 +0000|26538.52421179167|0.1595916748046875|0.0779266357421875|-0.9709625244140625|26538.50424779167|0.3181638507906309|0.16460239079399|-0.09067772276327328|0.002160738920792937|-0.006888081785291433|-0.01907024160027504|-0.00293906033039093|-0.006981119513511658|0.004937410354614258|XArbitraryZVertical|-0.05760894620754169|0.07393142095820907|0.1540344467750704|0.9836100715032856|0.1631869077682495|0.09055350720882416|-0.9824306964874268|0|0|0|-1|-1|634684936.5312992|0|0.1100006|100.0114|3
2021-02-10 21:22:18.776 +0000|26538.54417579167|0.1695556640625|0.0997161865234375|-0.98114013671875|26538.52421179167|0.3177729131750572|0.1645074824525918|-0.09077411508625433|0.001970622688531876|0.006317521445453167|-0.01824395172297955|-0.003866717219352722|-0.01112069934606552|0.0106511116027832|XArbitraryZVertical|-0.05763454611973941|0.07388823439700724|0.1538406642274909|0.9836421207142511|0.1630922257900238|0.09064950793981552|-0.9824375510215759|0|0|0|-1|-1|634684936.5312992|0|0.1100006|100.0114|3
2021-02-10 21:22:18.796 +0000|26538.56413979167|0.1665802001953125|0.0962371826171875|-0.986053466796875|26538.54417579167|0.3174130201663453|0.1646240978766033|-0.09089779975815691|0.01161444466561079|0.01484618708491325|-0.01453621033579111|0.00244450569152832|0.005266144871711731|0.002701699733734131|XArbitraryZVertical|-0.05769096833282829|0.07394600147234481|0.1536548413955848|0.9836635136632922|0.1632049530744553|0.09077268093824387|-0.9824075102806091|0|0|0|-1|-1|634684936.5312992|0|0.1100006|100.0114|3
2021-02-10 21:22:18.816 +0000|26538.58410379167|0.1659088134765625|0.09283447265625|-0.971282958984375|26538.56413979167|0.3169824502669507|0.1647686052742375|-0.09047043247802862|0.03912947326898575|0.01981042698025703|-0.01462995354086161|0.004173010587692261|0.006546236574649811|-0.003219366073608398|XArbitraryZVertical|-0.05747618042046471|0.07406385466800948|0.1534577616056594|0.9836980608907488|0.1633532792329788|0.09034706652164459|-0.9824220538139343|0|0|0|-1|-1|634684936.5312992|0|0.1100006|100.0114|3
2021-02-10 21:22:18.836 +0000|26538.60406879167|0.16827392578125|0.052490234375|-0.96368408203125|26538.58410379167|0.3167436815521732|0.1652886089030102|-0.08945916708127175|0.0498715378344059|0.04126176238059998|0.002030692994594574|0.00357094407081604|0.009079292416572571|0.005955696105957031|XArbitraryZVertical|-0.05701040823180489|0.07440772928587512|0.1533701334706789|0.9837128191013991|0.1638790667057037|0.08933988958597183|-0.9824265837669373|0|0|0|-1|-1|634684936.5312992|0|0.1100006|100.0114|3
2021-02-10 21:22:18.856 +0000|26538.62403279167|0.1589813232421875|0.05731201171875|-0.9434051513671875|26538.60406879167|0.3168478789014897|0.1664862161769902|-0.08851907233726418|0.02793993800878525|0.05846605449914932|0.04004616290330887|-0.0006711184978485107|-0.02738362550735474|0.02268683910369873|XArbitraryZVertical|-0.0566443206597682|0.07506933306696241|0.15342905559611|0.9836745297765808|0.1650693565607071|0.08840351551771164|-0.982312023639679|0|0|0|-1|-1|634684936.5312992|0|0.1100006|100.0114|3
2021-02-10 21:22:18.876 +0000|26538.64399679167|0.15826416015625|0.0641326904296875|-0.96685791015625|26538.62403279167|0.3181360451555415|0.1679668999495335|-0.08791834661164512|0.04784247279167175|0.09516680985689163|0.1172097474336624|-0.006147325038909912|-0.0260680690407753|0.04036152362823486|XArbitraryZVertical|-0.05651163629372342|0.07580945198979885|0.1540475135776407|0.9835287919397243|0.1665325164794922|0.0878051295876503|-0.9821187257766724|0|0|0|-1|-1|634684936.5312992|0|0.1100006|100.0114|3
2021-02-10 21:22:18.896 +0000|26538.66396079167|0.1741943359375|0.094635009765625|-0.99151611328125|26538.64399679167|0.3211072206645072|0.1704947051008647|-0.08796435686889588|-0.06579316407442093|0.1347038298845291|0.181417316198349|-0.002769336104393005|-0.03153076767921448|0.02218747138977051|XArbitraryZVertical|-0.05684328883232141|0.07696440250682757|0.1554346767040846|0.9832016793538559|0.1690139025449753|0.08785095810890198|-0.9816906452178955|0|0|0|-1|-1|634684936.5312992|0|0.1100006|100.0114|3
2021-02-10 21:22:18.916 +0000|26538.68392479167|0.14129638671875|0.163238525390625|-1.002182006835938|26538.66396079167|0.3250115238611991|0.173388380022316|-0.0894768616732787|-0.1683705598115921|0.1434291452169418|0.09257940948009491|0.0007309466600418091|-0.004732266068458557|-0.007765114307403564|XArbitraryZVertical|-0.05796332668843874|0.07815066515309323|0.157201169750184|0.982761638637998|0.1718307584524155|0.08935751765966415|-0.9810654520988464|0|0|0|-1|-1|634684936.5312992|0|0.1100006|100.0114|3
2021-02-10 21:22:18.936 +0000|26538.70388879167|0.1001129150390625|0.1399993896484375|-0.979095458984375|26538.68392479167|0.327886180461161|0.1758856250429597|-0.09137611315717194|-0.1441691815853119|0.1734973043203354|-0.02501228824257851|-0.01890039443969727|0.0329880565404892|-0.02901124954223633|XArbitraryZVertical|-0.05920529706751428|0.07913607254131|0.1584517325059527|0.9824078982955073|0.1742501705884933|0.0912490040063858|-0.9804644584655762|0|0|0|-1|-1|634684936.5312992|0|0.1100006|100.0114|3
2021-02-10 21:22:18.956 +0000|26538.72385279167|0.188934326171875|0.066925048828125|-0.981170654296875|26538.70388879167|0.3296778313118607|0.177736351626931|-0.09173574290924301|-0.04795248061418533|0.1186378300189972|0.08190163969993591|-0.0290096253156662|0.01444145292043686|-0.008112311363220215|XArbitraryZVertical|-0.05959994870871465|0.07996183953369723|0.1592597377026751|0.9821865332802194|0.1760586351156235|0.09160713106393814|-0.9801079034805298|0|0|0|-1|-1|634684936.5312992|0|0.1100006|100.0114|3
2021-02-10 21:22:18.976 +0000|26538.74381679167|0.188995361328125|0.106719970703125|-0.9805755615234375|26538.72385279167|0.3312506876004554|0.179357858704451|-0.09201278430287102|-0.08907953649759293|0.06261445581912994|0.05366982892155647|0.0379330962896347|-0.009149856865406036|-0.01022458076477051|XArbitraryZVertical|-0.05992838579710695|0.08068784684637856|0.1599704248735952|0.9819915932007853|0.1776431202888489|0.09188300371170044|-0.9797961115837097|0|0|0|-1|-1|634684936.5312992|0|0.1100006|100.0114|3
2021-02-10 21:22:18.996 +0000|26538.76378079167|0.1803741455078125|0.0723419189453125|-0.9683685302734375|26538.74381679167|0.3321204058293399|0.1806041146825236|-0.0935780659668696|-0.1053251251578331|0.0494065061211586|0.01966703310608864|0.01273614168167114|0.02275411784648895|-0.001754581928253174|XArbitraryZVertical|-0.06083076868936067|0.08114169659804961|0.1602845385548734|0.981847444994268|0.1788379997014999|0.09344155341386795|-0.9794312715530396|0|0|0|-1|-1|634684936.5312992|0|0.1100006|100.0114|3
2021-02-10 21:22:19.016 +0000|26538.78374479167|0.174560546875|0.0788116455078125|-0.9512939453125|26538.76378079167|0.3332237046843214|0.1821671954105364|-0.0964923206671611|-0.1809057295322418|0.09038904309272766|0.04190167412161827|-0.003713324666023254|-0.03774890303611755|0.009503006935119629|XArbitraryZVertical|-0.06242952267783045|0.08162879452326599|0.1606365298447361|0.9816492374906887|0.180318608880043|0.09634265303611755|-0.9788786172866821|0|0|0|-1|-1|634684936.5312992|0|0.1100006|100.0114|3
2021-02-10 21:22:19.036 +0000|26538.80370979167|0.1906280517578125|0.11456298828125|-0.9518585205078125|26538.78374479167|0.334526785594927|0.1839330605397479|-0.1006112739118369|-0.1941602826118469|0.1125654503703117|0.02453680150210857|0.002780675888061523|-0.007332496345043182|0.01948106288909912|XArbitraryZVertical|-0.06464321111037415|0.08210451283053824|0.161017759797364|0.9814038111403424|0.1819727718830109|0.1004416197538376|-0.9781602025032043|0|0|0|-1|-1|634684936.5312992|0|0.1100006|100.0114|3
2021-02-10 21:22:19.056 +0000|26538.82367379167|0.18206787109375|0.12017822265625|-0.965484619140625|26538.80370979167|0.335405021746609|0.1866965906115481|-0.1045821282933977|-0.2019698023796082|0.1553630232810974|-0.005941657349467278|0.001221820712089539|-0.008917346596717834|0.02716547250747681|XArbitraryZVertical|-0.06684718165190097|0.0830931288487235|0.1611600189474254|0.981149590632185|0.1845997720956802|0.1043915897607803|-0.9772539734840393|0|0|0|-1|-1|634684936.5312992|0|0.1100006|100.0114|3
2021-02-10 21:22:19.076 +0000|26538.84363779167|0.19561767578125|0.146148681640625|-0.9897308349609375|26538.82367379167|0.335694859593864|0.1899049720552351|-0.1076813771722292|-0.1623979806900024|0.1861937046051025|-0.02314718812704086|0.00246758759021759|0.02729222178459167|0.01089543104171753|XArbitraryZVertical|-0.06863541680291657|0.08439221071431392|0.1610364201977115|0.9809355271903982|0.1876722425222397|0.1074733957648277|-0.976334273815155|0|0|0|-1|-1|634684936.5312992|0|0.1100006|100.0114|3
2021-02-10 21:22:19.096 +0000|26538.86360179167|0.2146148681640625|0.1411590576171875|-1.01104736328125|26538.84363779167|0.336098640701589|0.1933854717038959|-0.109402541732816|-0.1262935101985931|0.1708741337060928|-0.006114141549915075|0.02333737909793854|0.04172498732805252|-0.01628327369689941|XArbitraryZVertical|-0.06977544335513335|0.08593774365276388|0.1610251892902926|0.980722660354085|0.1910333931446075|0.1091844365000725|-0.9754921793937683|0|0|0|-1|-1|634684939.0866053|0|0.1100006|100.0113|3
2021-02-10 21:22:19.116 +0000|26538.88356579167|0.2015533447265625|0.12060546875|-1.0093994140625|26538.86360179167|0.3367010219753873|0.1967536959854972|-0.1111675808367493|-0.09890835732221603|0.1407907456159592|0.01600536517798901|0.01825973391532898|0.004616051912307739|-0.03413635492324829|XArbitraryZVertical|-0.07093662673079926|0.08741652401331619|0.1611093503911817|0.9804948095507018|0.1942799985408783|0.1109387502074242|-0.9746527075767517|0|0|0|-1|-1|634684939.0866053|0|0.1100006|100.0113|3
2021-02-10 21:22:19.136 +0000|26538.90352979167|0.1967010498046875|0.124908447265625|-1.002166748046875|26538.88356579167|0.3371917834076923|0.1991720472478283|-0.1120904268827878|-0.06246364489197731|0.1024297773838043|-0.0007625191938132048|0.006310552358627319|0.01117576658725739|-0.03565585613250732|XArbitraryZVertical|-0.0716046140440285|0.08850514675646368|0.1612145661771971|0.9803313066073217|0.196616142988205|0.1118558496236801|-0.9740792512893677|0|0|0|-1|-1|634684939.0866053|0|0.1100006|100.0113|3
2021-02-10 21:22:19.156 +0000|26538.92349379167|0.1930389404296875|0.12420654296875|-1.002410888671875|26538.90352979167|0.3372019816196007|0.2008977146051635|-0.1134085492407416|-0.03583275154232979|0.07206600904464722|-0.02080307155847549|-0.001199886202812195|0.009865999221801758|-0.03069454431533813|XArbitraryZVertical|-0.07238892823437877|0.08923707599144089|0.1610864646182556|0.9802284582534081|0.1982671916484833|0.1131656020879745|-0.9735931754112244|0|0|0|-1|-1|634684939.0866053|0|0.1100006|100.0113|3
2021-02-10 21:22:19.176 +0000|26538.94345779167|0.182373046875|0.1112518310546875|-0.9848175048828125|26538.92349379167|0.3367530939646188|0.2020014776280959|-0.1142650285826116|-0.0127862524241209|0.04398990422487259|-0.03346764668822289|-0.003780737519264221|0.01047991961240768|-0.0298801064491272|XArbitraryZVertical|-0.07287660011964701|0.0897205879482115|0.1607799215762984|0.980198572986871|0.1993221789598465|0.1140165403485298|-0.9732784628868103|0|0|0|-1|-1|634684939.0866053|0|0.1100006|100.0113|3
2021-02-10 21:22:19.205 +0000|26538.96342179167|0.185821533203125|0.1131439208984375|-0.9742431640625|26538.94345779167|0.3360522197723507|0.2025748984363997|-0.1143699840253445|0.001679156441241503|0.03165563568472862|-0.0379442423582077|-0.01445296406745911|0.001037269830703735|-0.0193251371383667|XArbitraryZVertical|-0.07294249196371001|0.09001815283401894|0.1604098043621228|0.9802269966359839|0.1998778283596039|0.1141208112239838|-0.9731522798538208|0|0|0|-1|-1|634684939.0866053|0|0.1100006|100.0113|3
2021-02-10 21:22:19.216 +0000|26538.98338529167|0.19146728515625|0.11334228515625|-0.9714813232421875|26538.96342179167|0.3352243161642638|0.2031369680500993|-0.1147281596542654|0.01197621785104275|0.03182181715965271|-0.04362014681100845|-0.01705160737037659|-0.003835171461105347|-0.003257632255554199|XArbitraryZVertical|-0.07312540237051397|0.09029313963003568|0.1599639654053469|0.9802608399847195|0.2004165202379227|0.1144766360521317|-0.972999632358551|0|0|0|-1|-1|634684939.0866053|0|0.1100006|100.0113|3
2021-02-10 21:22:19.236 +0000|26539.00334929167|0.1964111328125|0.1038055419921875|-0.9771881103515625|26538.98338529167|0.3342719696228777|0.2035862267365446|-0.1147983159441952|0.01507951691746712|0.03168231993913651|-0.04585977643728256|-0.01133778691291809|-0.003416575491428375|0.0009472966194152832|XArbitraryZVertical|-0.07315254093814208|0.090542160296193|0.1594769060427469|0.980315239318679|0.2008520066738129|0.1145463362336159|-0.9729016423225403|0|0|0|-1|-1|634684939.0866053|0|0.1100006|100.0113|3
2021-02-10 21:22:19.255 +0000|26539.02331429167|0.2001495361328125|0.1107635498046875|-0.974365234375|26539.00334929167|0.3333452852140735|0.2038822605381282|-0.1148692035170017|0.01866564713418484|0.01828667148947716|-0.04042098298668861|-0.007611095905303955|-0.008629210293292999|-0.003743529319763184|XArbitraryZVertical|-0.07316879908436538|0.09071511503158786|0.1590079590780052|0.9803741981638185|0.201138362288475|0.1146167516708374|-0.9728341698646545|0|0|0|-1|-1|634684939.0866053|0|0.1100006|100.0113|3
2021-02-10 21:22:19.275 +0000|26539.04327829167|0.207733154296875|0.1066131591796875|-0.971343994140625|26539.02331429167|0.3324786213904718|0.2038604513926091|-0.1148774830169331|0.008169429376721382|0.01702715829014778|-0.03879228234291077|-0.00113523006439209|-0.0046854168176651|-0.001619100570678711|XArbitraryZVertical|-0.07313180359024478|0.09073541713784813|0.1585834598102112|0.9804438391699699|0.2011169493198395|0.1146249771118164|-0.9728376269340515|0|0|0|-1|-1|634684939.0866053|0|0.1100006|100.0113|3
2021-02-10 21:22:19.295 +0000|26539.06324229167|0.208709716796875|0.110107421875|-0.972503662109375|26539.04327829167|0.3317859191632319|0.2038138897820887|-0.1147187499028044|-0.01179039664566517|0.01026555150747299|-0.02963553369045258|0.005910173058509827|-0.007701560854911804|0.0003459453582763672|XArbitraryZVertical|-0.0730190203042646|0.09075138601281696|0.1582542690961952|0.9805039797066963|0.2010753303766251|0.1144672930240631|-0.9728648066520691|0|0|0|-1|-1|634684939.0866053|0|0.1100006|100.0113|3
2021-02-10 21:22:19.316 +0000|26539.08320629167|0.2072906494140625|0.12701416015625|-0.9751129150390625|26539.06324229167|0.3312879715212012|0.203674709243513|-0.1150531648161069|-0.02189081721007824|0.0008214497938752174|-0.02582144364714622|0.007258787751197815|-0.005561836063861847|0.0007941126823425293|XArbitraryZVertical|-0.07314905672986419|0.09067297953361862|0.1579969066107408|0.9805430777545364|0.2009321749210358|0.1147994995117188|-0.972855269908905|0|0|0|-1|-1|634684939.0866053|0|0.1100006|100.0113|3
2021-02-10 21:22:19.336 +0000|26539.10317029167|0.206207275390625|0.1232757568359375|-0.9739990234375|26539.08320629167|0.3309091478075318|0.2036575806922109|-0.1153742902593341|-0.01622793823480606|0.004448515363037586|-0.02034527622163296|0.003178313374519348|0.01238395273685455|-0.00122225284576416|XArbitraryZVertical|-0.07328765828646243|0.09065124132018437|0.1577942108261423|0.98056742341306|0.2009080499410629|0.115118496119976|-0.9728225469589233|0|0|0|-1|-1|634684939.0866053|0|0.1100006|100.0113|3
2021-02-10 21:22:19.356 +0000|26539.12313429167|0.2041168212890625|0.11834716796875|-0.9669647216796875|26539.10317029167|0.3307374433729413|0.2036709133718376|-0.1154292583557227|-0.00838944036513567|0.003115815110504627|-0.0009247055277228355|0.006081059575080872|0.0156404972076416|-0.002268731594085693|XArbitraryZVertical|-0.07330783603727775|0.0906594251863361|0.1577065429588418|0.980579141723234|0.2009197324514389|0.1151731014251709|-0.9728136658668518|0|0|0|-1|-1|634684939.0866053|0|0.1100006|100.0113|3
2021-02-10 21:22:19.376 +0000|26539.14309829167|0.201751708984375|0.11541748046875|-0.966217041015625|26539.12313429167|0.3308066863083984|0.2036844574266774|-0.1154456111118449|-0.01323139946907759|0.0005500726401805878|0.002631413284689188|0.004328742623329163|0.003142558038234711|0.002929985523223877|XArbitraryZVertical|-0.07332004312192707|0.0906621422160061|0.1577390975551911|0.9805727575255253|0.2009325325489044|0.1151893436908722|-0.9728090763092041|0|0|0|-1|-1|634684939.0866053|0|0.1100006|100.0113|3
2021-02-10 21:22:19.396 +0000|26539.16306229167|0.2028656005859375|0.1162872314453125|-0.9688873291015625|26539.14309829167|0.3309756781798177|0.2037626973804476|-0.1155705690627894|-0.02563352324068546|0.002999435178935528|0.009773390367627144|0.001432687044143677|-0.0004147961735725403|0.008896827697753906|XArbitraryZVertical|-0.07339502045993054|0.09068372224258242|0.1578122343573621|0.9805533861020447|0.2010057270526886|0.1153134703636169|-0.9727792739868164|0|0|0|-1|-1|634684939.0866053|0|0.1100006|100.0113|3
2021-02-10 21:22:19.416 +0000|26539.18302629167|0.199432373046875|0.1120452880859375|-0.9655914306640625|26539.16306229167|0.331266808162048|0.2038216489556147|-0.1161390887743373|-0.0260690338909626|-0.007165424060076475|0.01073550060391426|0.001525968313217163|-0.000216558575630188|0.004075169563293457|XArbitraryZVertical|-0.07369104409043717|0.09065373973888874|0.1579216247218288|0.9805163712229191|0.2010497748851776|0.1158781796693802|-0.9727030396461487|0|0|0|-1|-1|634684939.0866053|0|0.1100006|100.0113|3
2021-02-10 21:22:19.436 +0000|26539.20299029167|0.201995849609375|0.1182708740234375|-0.96746826171875|26539.18302629167|0.3315775805861447|0.2037100974319744|-0.1169622526344732|-0.02805931493639946|-0.008060299791395664|0.008250150829553604|-0.00142844021320343|-0.004391074180603027|0.005377113819122314|XArbitraryZVertical|-0.07409905915475093|0.09051773922889966|0.1580329507788402|0.9804802535746087|0.200921893119812|0.1166957542300224|-0.9726317524909973|0|0|0|-1|-1|634684939.0866053|0|0.1100006|100.0113|3
2021-02-10 21:22:19.456 +0000|26539.22295529167|0.201873779296875|0.115142822265625|-0.967437744140625|26539.20299029167|0.3318443372956823|0.2036126820670187|-0.1175012643837983|-0.02123662829399109|-0.01074891909956932|0.009173113852739334|-0.0008021444082260132|-0.0007454827427864075|0.005869030952453613|XArbitraryZVertical|-0.07436714368018699|0.09041431537353836|0.1581377811245509|0.9804525295947166|0.2008143961429596|0.1172310709953308|-0.9725895524024963|0|0|0|-1|-1|634684939.0866053|0|0.1100006|100.0113|3
2021-02-10 21:22:19.475 +0000|26539.24291929167|0.2017974853515625|0.1315765380859375|-0.9701385498046875|26539.22295529167|0.3320792404414568|0.2034139568325536|-0.1179209180522637|-0.0261258278042078|-0.01330379769206047|0.003850697074085474|0.000316619873046875|-0.002504989504814148|0.005738556385040283|XArbitraryZVertical|-0.07456733404057446|0.09027247726220276|0.1582373058099647|0.9804344529253001|0.2006111592054367|0.1176478192210197|-0.9725812077522278|0|0|0|-1|-1|634684939.0866053|0|0.1100006|100.0113|3
2021-02-10 21:22:19.495 +0000|26539.26288329167|0.2028045654296875|0.1298370361328125|-0.97119140625|26539.24291929167|0.3322226035609204|0.2032028859222924|-0.1183214640206431|-0.02100009098649025|-0.01366833038628101|0.001059349160641432|0.002087846398353577|0.009914636611938477|0.003140628337860107|XArbitraryZVertical|-0.07475305705855848|0.09012959481649677|0.1582935146489955|0.9804243522241964|0.2003963440656662|0.1180455759167671|-0.9725772738456726|0|0|0|-1|-1|634684939.0866053|0|0.1100006|100.0113|3
2021-02-10 21:22:19.516 +0000|26539.28284729167|0.20574951171875|0.125885009765625|-0.971282958984375|26539.26288329167|0.3323158558879565|0.202947740250494|-0.1186283167306497|-0.01885080337524414|-0.0125798974186182|-0.002033557277172804|0.004326939582824707|0.01081536710262299|0.00228649377822876|XArbitraryZVertical|-0.07488717416767215|0.08997492329789102|0.1583319632935437|0.9804221499763345|0.2001408785581589|0.1183502748608589|-0.972592830657959|0|0|0|-1|-1|634684939.0866053|0|0.1100006|100.0113|3
2021-02-10 21:22:19.536 +0000|26539.30281129167|0.203125|0.1197509765625|-0.9643707275390625|26539.28284729167|0.3323532132546118|0.202765451303394|-0.1189399168490858|-0.01988730579614639|-0.006065272260457277|-0.001736614853143692|0.005595043301582336|0.007332131266593933|0.001386523246765137|XArbitraryZVertical|-0.07502686291224947|0.08985764793356882|0.1583400566590916|0.9804209114833935|0.1999561488628387|0.118659682571888|-0.9725931286811829|0|0|0|-1|-1|634684939.0866053|0|0.1100006|100.0113|3
2021-02-10 21:22:19.555 +0000|26539.32277529167|0.2071990966796875|0.123016357421875|-0.964141845703125|26539.30281129167|0.3324961391402066|0.2027375903425394|-0.1192394340908437|-0.01892382279038429|0.003324820660054684|0.009022200480103493|0.003813520073890686|0.001373738050460815|0.007582783699035645|XArbitraryZVertical|-0.07517760883702451|0.089813130726124|0.1583947855935349|0.9804045498696469|0.1999218910932541|0.1189570799469948|-0.9725638628005981|0|0|0|-1|-1|634684939.0866053|0|0.1100006|100.0113|3
2021-02-10 21:22:19.575 +0000|26539.34273929167|0.2020263671875|0.114959716796875|-0.967987060546875|26539.32277529167|0.332759853635296|0.2028302056220489|-0.1196426877090608|-0.02100741304457188|0.001461034640669823|0.009396197274327278|0.006906941533088684|0.004223473370075226|0.008142828941345215|XArbitraryZVertical|-0.07539405411768683|0.08981425126683246|0.1584984927864791|0.9803711020016143|0.2000022828578949|0.1193574592471123|-0.9724982976913452|0|0|0|-1|-1|634684939.0866053|0|0.1100006|100.0113|3
2021-02-10 21:22:19.595 +0000|26539.36270329167|0.2027740478515625|0.12017822265625|-0.9687347412109375|26539.34273929167|0.3330215066078416|0.2030051543439657|-0.12039389560976|-0.03545800969004631|0.008542167022824287|0.007138635963201523|0.001216009259223938|-0.003037832677364349|0.006020843982696533|XArbitraryZVertical|-0.07578715034230792|0.08982607593883629|0.1585789870933958|0.9803265893866289|0.2001542747020721|0.1201032623648643|-0.9723751544952393|0|0|0|-1|-1|634684939.0866053|0|0.1100006|100.0113|3
2021-02-10 21:22:19.616 +0000|26539.38266729167|0.2049560546875|0.1248626708984375|-0.9741668701171875|26539.36270329167|0.3332890107823026|0.2031397218596218|-0.1212599644511633|-0.0385076105594635|0.001588973216712475|0.003232577349990606|0.002052262425422668|-0.004385866224765778|0.001817524433135986|XArbitraryZVertical|-0.07623346284007422|0.08980795410187443|0.1586574715950695|0.9802809410033002|0.2002640664577484|0.1209630146622658|-0.972245991230011|0|0|0|-1|-1|634684939.0866053|0|0.1100006|100.0113|3
2021-02-10 21:22:19.636 +0000|26539.40263229167|0.1997222900390625|0.1165313720703125|-0.973358154296875|26539.38266729167|0.3334965424818906|0.2031747778202357|-0.1219856086715747|-0.03740735724568367|-0.01001410093158484|0.003574349917471409|0.003973811864852905|0.004415325820446014|-0.0007018446922302246|XArbitraryZVertical|-0.0766004681253686|0.08975521409102487|0.1587179802841441|0.9802474822622812|0.2002803832292557|0.1216832995414734|-0.9721527099609375|0|0|0|-1|-1|634684939.0866053|0|0.1100006|100.0113|3
2021-02-10 21:22:19.655 +0000|26539.42259629167|0.193939208984375|0.1233062744140625|-0.972747802734375|26539.40263229167|0.333716500597485|0.203089675714069|-0.1228210524130705|-0.03935492783784866|-0.007514724507927895|0.006285181269049644|-0.001461818814277649|-0.004760421812534332|-0.001425623893737793|XArbitraryZVertical|-0.07701218495505208|0.08963363651343689|0.1587831502117089|0.9802157596644191|0.2001770734786987|0.1225124895572662|-0.9720698595046997|0|0|0|-1|-1|634684939.0866053|0|0.1100006|100.0113|3
2021-02-10 21:22:19.675 +0000|26539.44256029167|0.1948394775390625|0.122894287109375|-0.972442626953125|26539.42259629167|0.3340405554779088|0.2030607332071855|-0.1234749572863332|-0.04045268520712852|-0.001966028474271297|0.009741432033479214|-0.003385871648788452|0.001212939620018005|-0.0009949207305908203|XArbitraryZVertical|-0.07734420634994921|0.08955099236009388|0.1589071465161887|0.9801770400788085|0.200132742524147|0.1231614425778389|-0.9719969630241394|0|0|0|-1|-1|634684939.0866053|0|0.1100006|100.0113|3
2021-02-10 21:22:19.699 +0000|26539.46252429167|0.2028961181640625|0.1216888427734375|-0.97869873046875|26539.44256029167|0.3344283648197502|0.2030023801117394|-0.1241045995335851|-0.04570555314421654|-0.00458838976919651|0.0103866271674633|-0.00407642126083374|-0.002997696399688721|0.000207066535949707|XArbitraryZVertical|-0.0776648377928542|0.08945342099207285|0.1590648397477681|0.9801350376054064|0.2000603526830673|0.1237862706184387|-0.9719325304031372|0|0|0|-1|-1|634684939.0866053|0|0.1100006|100.0113|3
2021-02-10 21:22:19.717 +0000|26539.48248829167|0.199951171875|0.1160888671875|-0.9783782958984375|26539.46252429167|0.3348223535680566|0.2029774459898437|-0.1249143315694644|-0.04284405335783958|-0.009021115489304066|0.01553496159613132|0.002392038702964783|-0.003648564219474792|-0.004799783229827881|XArbitraryZVertical|-0.07807643259954843|0.08935640036239817|0.159214347369518|0.9800868824900849|0.2000158429145813|0.1245897337794304|-0.9718390107154846|0|0|0|-1|-1|634684939.0866053|0|0.1100006|100.0113|3
2021-02-10 21:22:19.735 +0000|26539.50245229167|0.2062530517578125|0.113739013671875|-0.975555419921875|26539.48248829167|0.3353474504496816|0.2028814020447993|-0.1256576002001567|-0.04528111219406128|-0.005570457316935062|0.0171219389885664|0.0001389831304550171|-0.009863927960395813|-0.005558192729949951|XArbitraryZVertical|-0.07845565864257217|0.0892249275458856|0.1594345111256379|0.9800328225737043|0.1999038010835648|0.1253271698951721|-0.971767246723175|0|0|0|-1|-1|634684939.0866053|0|0.1100006|100.0113|3
2021-02-10 21:22:19.755 +0000|26539.52241629167|0.2136688232421875|0.114044189453125|-0.967193603515625|26539.50245229167|0.3359497815041768|0.2028296627862478|-0.1263032798671803|-0.03970978036522865|-0.005355007946491241|0.02503126114606857|0.00707206130027771|-0.004050016403198242|-0.005840957164764404|XArbitraryZVertical|-0.07879407866884672|0.08912032203990562|0.1596961399706948|0.9799726314156566|0.1998371779918671|0.1259677410125732|-0.9716981053352356|0|0|0|-1|-1|634684939.0866053|0|0.1100006|100.0113|3
2021-02-10 21:22:19.775 +0000|26539.54238029167|0.2082977294921875|0.10089111328125|-0.9658050537109375|26539.52241629167|0.3366945292545175|0.2027599778551225|-0.1273056203626446|-0.08217509835958481|-0.0140512939542532|0.03071107342839241|0.01047646999359131|-0.01741918921470642|0.001205205917358398|XArbitraryZVertical|-0.07931170735669986|0.08897029208771645|0.1600085978331836|0.9798935092778567|0.199743926525116|0.1269620358943939|-0.9715878963470459|0|0|0|-1|-1|634684939.0866053|0|0.1100006|100.0113|3
2021-02-10 21:22:19.795 +0000|26539.56234429167|0.2129058837890625|0.11578369140625|-0.96832275390625|26539.54238029167|0.3378834133704927|0.2025065835038217|-0.1286450752343137|-0.08726005256175995|-0.0191522054374218|0.05805570259690285|0.008452951908111572|-0.02302014827728271|0.008809268474578857|XArbitraryZVertical|-0.07999897908543187|0.08868292649723596|0.1605273610418771|0.9797787820796028|0.199463352560997|0.1282905340194702|-0.9714710116386414|0|0|0|-1|-1|634684939.0866053|0|0.1100006|100.0113|3
2021-02-10 21:22:19.815 +0000|26539.58230929167|0.2091522216796875|0.1161041259765625|-0.9716033935546875|26539.56234429167|0.3399036137633941|0.2022310184566027|-0.1298708338446842|-0.10057632625103|-0.02997193671762943|0.1097120642662048|0.01497799158096313|-0.01726239919662476|0.005352497100830078|XArbitraryZVertical|-0.08066529775190348|0.08836024817494934|0.1614604816970026|0.9795999405688652|0.1991638988256454|0.1295060664415359|-0.9713711738586426|0|0|0|-1|-1|634684939.0866053|0|0.1100006|100.0113|3
2021-02-10 21:22:19.835 +0000|26539.60227329167|0.20635986328125|0.1053466796875|-0.9636993408203125|26539.58230929167|0.3429570892538376|0.2019144690222882|-0.1312182259820484|-0.1169711649417877|-0.04393808543682098|0.1543163657188416|0.01350486278533936|-0.01417329907417297|-0.003118157386779785|XArbitraryZVertical|-0.08143258846548966|0.08796348945186548|0.1628944527899917|0.9793347144823192|0.1988212317228317|0.1308419853448868|-0.9712623357772827|0|0|0|-1|-1|634684939.0866053|0|0.1100006|100.0113|3
2021-02-10 21:22:19.855 +0000|26539.62223729167|0.1987457275390625|0.1005401611328125|-0.95684814453125|26539.60227329167|0.3467012170984473|0.2013587036776625|-0.132823174828876|-0.1609160155057907|-0.06564417481422424|0.1664347350597382|0.007891878485679626|-0.02429394423961639|0.005665779113769531|XArbitraryZVertical|-0.08233515468419904|0.08739617644063927|0.1646618531576507|0.9790144211791648|0.1982391476631165|0.1324329674243927|-0.971165657043457|0|0|0|-1|-1|634684939.0866053|0|0.1100006|100.0113|3
2021-02-10 21:22:19.875 +0000|26539.64220129167|0.2039794921875|0.1055450439453125|-0.9569854736328125|26539.62223729167|0.3509566355520979|0.2005129450624465|-0.1352699871791456|-0.2064837217330933|-0.07314209640026093|0.1833355128765106|0.00345313549041748|-0.03984135389328003|0.01634639501571655|XArbitraryZVertical|-0.08364483609332521|0.08658681719348607|0.1666448728231673|0.9786398221287075|0.1973525881767273|0.1348578333854675|-0.9710125327110291|0|0|0|-1|-1|634684939.0866053|0|0.1100006|100.0113|3
2021-02-10 21:22:19.895 +0000|26539.66216529167|0.1996612548828125|0.1068878173828125|-0.9628143310546875|26539.64220129167|0.3558335473295723|0.1995947566920265|-0.1381731561834106|-0.2547327876091003|-0.09460222721099854|0.2180905491113663|0.007368206977844238|-0.02709242701530457|0.009532332420349121|XArbitraryZVertical|-0.0851946187866532|0.08566874322030404|0.1689097678763717|0.9781984488282996|0.196382462978363|0.1377339065074921|-0.9708054661750793|0|0|0|-1|-1|634684939.0866053|0|0.1100006|100.0113|3
2021-02-10 21:22:19.915 +0000|26539.68212929167|0.198760986328125|0.101470947265625|-0.9761962890625|26539.66216529167|0.3618366796625664|0.1987377377825788|-0.142095456678393|-0.3099611401557922|-0.07398099452257156|0.2772493958473206|0.004982009530067444|-0.03811739385128021|0.002556145191192627|XArbitraryZVertical|-0.08729019018078288|0.08463001076256882|0.1716662314082425|0.9776241245170665|0.1954422295093536|0.1416177600622177|-0.9704363942146301|0|0|0|-1|-1|634684939.0866053|0|0.1100006|100.0113|3
2021-02-10 21:22:19.935 +0000|26539.70209329167|0.3514404296875|-0.01361083984375|-0.9871978759765625|26539.68212929167|0.3693159478583909|0.1979562700285397|-0.1473085049109111|-0.430843323469162|-0.1126355528831482|0.2949795722961426|0.008421227335929871|-0.03993427753448486|-0.007366836071014404|XArbitraryZVertical|-0.09007712993804291|0.08342794193032622|0.1750682374873901|0.9768710855555499|0.1945359706878662|0.1467763185501099|-0.9698517918586731|0|0|0|-1|-1|634684939.0866053|0|0.1100006|100.0113|3
2021-02-10 21:22:19.955 +0000|26539.72205729167|0.167633056640625|0.067169189453125|-0.934722900390625|26539.70209329167|0.3693538855306795|0.194532747821354|-0.1547740834208661|-0.4836121797561646|-0.410395473241806|0.04993057250976562|0.2166564613580704|-0.0324680507183075|-0.0263175368309021|XArbitraryZVertical|-0.09341541489266506|0.08104680021313755|0.1748339133333142|0.9767999524849169|0.1909973919391632|0.154156893491745|-0.9694099426269531|0|0|0|-1|-1|634684939.0866053|0|0.1100006|100.0113|3
2021-02-10 21:22:19.975 +0000|26539.74202129167|0.219024658203125|0.1107940673828125|-0.9210205078125|26539.72205729167|0.371951830067523|0.1906018603200561|-0.1650216713276871|-0.6878121495246887|-0.1281446218490601|0.05228392034769058|-0.06950551271438599|-0.0980047881603241|0.03091388940811157|XArbitraryZVertical|-0.09816368499876776|0.07802746140017594|0.1757331213105426|0.9764187572487336|0.1868761777877808|0.1642737090587616|-0.9685512185096741|0|0|0|-1|-1|634684939.0866053|0|0.1100006|100.0113|3
2021-02-10 21:22:19.995 +0000|26539.76198629167|0.1578521728515625|0.0849456787109375|-0.8895111083984375|26539.74202129167|0.3763520230858523|0.1877724311468386|-0.1786338839237873|-0.8707231283187866|-0.216960996389389|0.09069540351629257|0.04623420536518097|-0.08585798740386963|0.0394519567489624|XArbitraryZVertical|-0.1047050803828255|0.07511372465448285|0.1772866019396331|0.9756865443332791|0.1837005168199539|0.1776853650808334|-0.9667895436286926|0|0|0|-1|-1|634684939.0866053|0|0.1100006|100.0113|3
2021-02-10 21:22:20.015 +0000|26539.78195029167|0.1971588134765625|0.104400634765625|-0.87457275390625|26539.76198629167|0.3850679833289621|0.1846954094016734|-0.1957324732860384|-1.17132294178009|-0.2089599967002869|0.3743579089641571|-0.02730840444564819|-0.101650595664978|0.0657086968421936|XArbitraryZVertical|-0.1130568833183507|0.07146262853519489|0.1807756423122757|0.9743877277160792|0.1801404803991318|0.194485068321228|-0.9642224907875061|0|0|0|-1|-1|634684939.0866053|0|0.1100006|100.0113|3
2021-02-10 21:22:20.035 +0000|26539.80191429167|0.1623992919921875|0.006744384765625|-0.80914306640625|26539.78195029167|0.3987290131251394|0.182407464867641|-0.2177491585312694|-1.376578569412231|-0.2929038107395172|0.4744721055030823|0.0395607203245163|-0.109861820936203|0.06271159648895264|XArbitraryZVertical|-0.1239954406205945|0.06731454400449305|0.1863551914597288|0.9722991020712162|0.1771141290664673|0.216032475233078|-0.9601877927780151|0|0|0|-1|-1|634684939.0866053|0|0.1100006|100.0113|3
2021-02-10 21:22:20.054 +0000|26539.82187829167|0.1417388916015625|0.0252685546875|-0.7759246826171875|26539.80191429167|0.4140348752929865|0.1798275895938333|-0.2470559192887898|-1.826963186264038|-0.3154561519622803|0.5143910050392151|-0.0004707276821136475|-0.2176185846328735|0.1272795796394348|XArbitraryZVertical|-0.1384116449887597|0.0619825160429569|0.1923242752225474|0.9695420489167813|0.1734291464090347|0.2445503324270248|-0.9540007710456848|0|0|0|-1|-1|634684939.0866053|0|0.1100006|100.0113|3
2021-02-10 21:22:20.074 +0000|26539.84184229167|0.17132568359375|0.2036895751953125|-0.8033294677734375|26539.82187829167|0.4312140188030875|0.1791810258761128|-0.2862554574012297|-2.320828676223755|-0.1846028417348862|0.4314056932926178|-0.03637364506721497|-0.2652722001075745|0.1665140986442566|XArbitraryZVertical|-0.1577238264042599|0.05611150934753296|0.1984369856027259|0.9657109145044059|0.170971468091011|0.2823620438575745|-0.9439494013786316|0|0|0|-1|-1|634684939.0866053|0|0.1100006|100.0113|3
2021-02-10 21:22:20.094 +0000|26539.86180629167|0.225738525390625|0.3033905029296875|-0.8020477294921875|26539.84184229167|0.4506828008224779|0.1819412267862845|-0.3325507768642962|-2.518442869186401|-0.1557873338460922|0.5084515810012817|-0.02162708342075348|-0.1722803115844727|0.1406098604202271|XArbitraryZVertical|-0.1806771374034814|0.05049862699466767|0.2047906274412751|0.9606594683678797|0.1710259318351746|0.3264551162719727|-0.9296113252639771|0|0|0|-1|-1|634684939.0866053|0|0.1100006|100.0113|3
2021-02-10 21:22:20.114 +0000|26539.88177029167|0.20135498046875|0.3561859130859375|-0.784454345703125|26539.86180629167|0.4716868616216299|0.1862127761473912|-0.3814060852388973|-2.647899389266968|-0.120201587677002|0.3396056294441223|0.05288140475749969|-0.09201347827911377|0.1090878248214722|XArbitraryZVertical|-0.2048340712271028|0.04466059569968943|0.2112984863960476|0.9546734929219387|0.1718348264694214|0.3722258806228638|-0.9120968580245972|0|0|0|-1|-1|634684939.0866053|0|0.1100006|100.0113|3
2021-02-10 21:22:20.134 +0000|26539.90173429167|0.2548065185546875|0.3494110107421875|-0.7731170654296875|26539.88177029167|0.4932950636813608|0.1890612439857975|-0.4341481225969614|-3.049009799957275|-0.1976530700922012|0.3131175637245178|0.05767819285392761|-0.09895190596580505|0.07755583524703979|XArbitraryZVertical|-0.2304276822714905|0.03703565268291799|0.2176461367977328|0.9477139109564171|0.1705017983913422|0.4206376969814301|-0.8910629153251648|0|0|0|-1|-1|634684939.0866053|0|0.1100006|100.0113|3
2021-02-10 21:22:20.154 +0000|26539.92169829167|0.205078125|0.5009002685546875|-0.7957305908203125|26539.90173429167|0.5114541935275621|0.1908106030885217|-0.4980391390381311|-3.561963558197021|-0.4319754540920258|0.075127013027668|0.09653735160827637|-0.1608855426311493|0.08125030994415283|XArbitraryZVertical|-0.2607075678231293|0.02726318808964349|0.2213178767157778|0.9393119396601556|0.1666157692670822|0.4777038097381592|-0.8625765442848206|0|0|0|-1|-1|634684939.0866053|0|0.1100006|100.0113|3
2021-02-10 21:22:20.174 +0000|26539.94166329167|0.1569366455078125|0.509857177734375|-0.7693939208984375|26539.92169829167|0.528306923890335|0.1896069987465829|-0.5720569750582446|-4.017274856567383|-0.6098385453224182|0.03074090182781219|0.04111897945404053|-0.05964267253875732|0.05338203907012939|XArbitraryZVertical|-0.2948460246466065|0.0143307281232722|0.2235779084575641|0.928909834017533|0.1584660261869431|0.5413627028465271|-0.8257209062576294|0|0|0|-1|-1|634684939.0866053|0|0.1100006|100.0113|3
2021-02-10 21:22:20.196 +0000|26539.96162729167|0.1884613037109375|0.5332183837890625|-0.8033447265625|26539.94166329167|0.5470732765178176|0.1882318272120976|-0.6541748375326055|-4.302021026611328|-0.6259869933128357|-0.08475373685359955|0.01607517898082733|-0.08962953090667725|0.001060664653778076|XArbitraryZVertical|-0.3320131184658406|-0.0007217134764149182|0.2256129912996817|0.915896018762937|0.1484909206628799|0.6085046529769897|-0.7795335650444031|0|0|0|-1|-1|634684939.0866053|0|0.1100006|100.0113|3
2021-02-10 21:22:20.214 +0000|26539.98159154167|0.2877197265625|0.908660888671875|-0.802703857421875|26539.96162729167|0.5694531726732109|0.1886571865606771|-0.7404528046255197|-4.378770351409912|-0.8130459189414978|0.05676708742976189|0.03490471839904785|-0.1659247279167175|-0.08569461107254028|XArbitraryZVertical|-0.3703796164319936|-0.01691164624704253|0.2279911133758658|0.900307123784839|0.1384351700544357|0.6746222376823425|-0.7250658869743347|0|0|0|-1|-1|634684939.0866053|0|0.1100006|100.0113|3
2021-02-10 21:22:20.234 +0000|26540.00155554167|0.2635955810546875|0.83074951171875|-0.7084503173828125|26539.98159154167|0.5932951233992343|0.1876524675673985|-0.8241702837050238|-4.068704605102539|-1.022742986679077|0.1188280582427979|0.1316002756357193|0.09150069952011108|-0.1551595330238342|XArbitraryZVertical|-0.4064361264954874|-0.03446746233864151|0.2307820496088453|0.8833805974418178|0.1267005503177643|0.7339845299720764|-0.6672433614730835|0|0|0|-1|-1|634684939.0866053|0|0.1100006|100.0113|3
2021-02-10 21:22:20.254 +0000|26540.02151954167|0.167816162109375|0.800262451171875|-0.5920257568359375|26540.00155554167|0.6203268542750277|0.1839356496764919|-0.902791779376569|-4.072257518768311|-1.501688003540039|0.03541350737214088|0.1867566853761673|0.1136834025382996|-0.1171784996986389|XArbitraryZVertical|-0.4388744139825121|-0.0538821695597713|0.2353328088399695|0.8655081542755602|0.1132921800017357|0.7850592732429504|-0.608971893787384|0|0|0|-1|-1|634684939.0866053|0|0.1100006|100.0113|3
2021-02-10 21:22:20.274 +0000|26540.04148354167|0.1435394287109375|0.809295654296875|-0.5488128662109375|26540.02151954167|0.6470895564153023|0.1743163991369394|-0.986275365531717|-4.553927898406982|-1.498803853988647|-0.05293624103069305|0.1057299226522446|-0.04872870445251465|-0.1015818119049072|XArbitraryZVertical|-0.4715037240087626|-0.0772360240501635|0.2399159763872234|0.8450794365866291|0.09570140391588211|0.8339765071868896|-0.543437659740448|0|0|0|-1|-1|634684939.0866053|0|0.1100006|100.0113|3
2021-02-10 21:22:20.294 +0000|26540.06144754167|0.181793212890625|1.253555297851562|-0.47418212890625|26540.04148354167|0.6733911239747242|0.1658614640381919|-1.081356194174964|-4.890722751617432|-1.560318827629089|-0.2929561138153076|0.06002985686063766|-0.1134311556816101|-0.09886577725410461|XArbitraryZVertical|-0.5076100984135179|-0.1024304547430504|0.242029536755919|0.8205252613928199|0.07761972397565842|0.8825961947441101|-0.4636799693107605|0|0|0|-1|-1|634684939.0866053|0|0.1100006|100.0113|3
2021-02-10 21:22:20.314 +0000|26540.08141154167|0.17852783203125|1.284896850585938|-0.3856964111328125|26540.06144754167|0.6951725720803124|0.152117736382041|-1.178771219568602|-4.654388904571533|-1.750770926475525|-0.4100386202335358|0.1141180470585823|0.2220876812934875|-0.09215408563613892|XArbitraryZVertical|-0.5426143628573591|-0.1294036345679302|0.2426298519708668|0.7936970812832682|0.05789431184530258|0.9241372346878052|-0.3776487112045288|0|0|0|-1|-1|634684939.0866053|0|0.1100006|100.0113|3
2021-02-10 21:22:20.334 +0000|26540.10137654167|0.024749755859375|1.13714599609375|-0.2486114501953125|26540.08141154167|0.7069484482343619|0.122921524075925|-1.263701723057056|-3.854440927505493|-2.219311714172363|-0.4516107439994812|0.1660605818033218|0.3775488138198853|-0.123162716627121|XArbitraryZVertical|-0.5702342370447059|-0.15756995197578|0.244765523544509|0.7681759747922278|0.03706445917487144|0.9532158374786377|-0.3000092506408691|0|0|0|-1|-1|634684939.0866053|0|0.1100006|100.0113|3
2021-02-10 21:22:20.354 +0000|26540.12134054167|-0.017547607421875|1.067337036132812|-0.1561737060546875|26540.10137654167|0.6987365704956069|0.0684860008872933|-1.337175661597211|-3.529941082000732|-2.365624904632568|-0.5116218328475952|0.05306649208068848|0.1617327928543091|-0.0382973849773407|XArbitraryZVertical|-0.5912855316195769|-0.1868202733716229|0.2485076453470339|0.7441261497140228|0.01584224961698055|0.972834587097168|-0.2309592068195343|0|0|0|-1|-1|634684939.0866053|0|0.1100006|100.0113|3
2021-02-10 21:22:20.374 +0000|26540.14130454167|-0.0371551513671875|0.950531005859375|-0.0774688720703125|26540.12134054167|0.6539602670653909|-0.02203755512815964|-1.406126556664389|-3.52133321762085|-2.306420087814331|-0.5614022016525269|0.003261357080191374|0.09842753410339355|-0.04070194065570831|XArbitraryZVertical|-0.6095635040573253|-0.2156116777956407|0.2517522287747151|0.7201145539985272|-0.003612272907048464|0.9864725470542908|-0.1638878732919693|0|0|0|-1|-1|634684939.0866053|0|0.1100006|100.0113|3
2021-02-10 21:22:20.394 +0000|26540.16126854167|-0.0268402099609375|1.018386840820312|-0.0104522705078125|26540.14130454167|0.4945862595904509|-0.2261371899174969|-1.476041929096252|-3.636122703552246|-2.253013849258423|-0.5753729939460754|-0.01304227113723755|-0.0320284366607666|-0.01547682285308838|XArbitraryZVertical|-0.6277592019245942|-0.2445734475949106|0.2535364161340735|0.694133679305927|-0.02121369726955891|0.9955141544342041|-0.09220442920923233|0|0|0|-1|-1|634684939.0866053|0|0.1100006|100.0113|3
2021-02-10 21:22:20.414 +0000|26540.18123254167|-0.0272674560546875|1.06475830078125|0.1145782470703125|26540.16126854167|-0.4471014200831293|-1.21106468989591|-1.531794892251468|-4.035375595092773|-2.230467319488525|-0.674027681350708|0.003068145364522934|-0.01970142126083374|0.01243054680526257|XArbitraryZVertical|-0.6467038002208436|-0.2736976702086385|0.2533628336605395|0.6653354329910235|-0.03650010004639626|0.9992395639419556|-0.01372756063938141|0|0|0|-1|-1|634684939.0866053|0|0.1100006|100.0113|3
2021-02-10 21:22:20.434 +0000|26540.20119654167|-0.068206787109375|1.077423095703125|0.2177886962890625|26540.18123254167|-1.709831230150674|-2.517094533752593|-1.486902451104388|-4.084509372711182|-2.261350870132446|-0.6125612854957581|0.0167836882174015|0.06409448385238647|-0.02847541123628616|XArbitraryZVertical|-0.6650253130830992|-0.3028721280375508|0.2520870720949307|0.63439891668408|-0.04899493232369423|0.9964829683303833|0.06798038631677628|0|0|0|-1|-1|634684939.0866053|0|0.1100006|100.0113|3
2021-02-10 21:22:20.454 +0000|26540.22116054167|-0.0948944091796875|0.997528076171875|0.2362518310546875|26540.20119654167|-1.921471643727212|-2.772174267979036|-1.412089727344187|-3.791473150253296|-2.221878051757812|-0.6274148225784302|-0.008731424808502197|0.1087436676025391|0.02650976181030273|XArbitraryZVertical|-0.6813341967695553|-0.3308676991528699|0.2508582101546808|0.6028104607805591|-0.05706446617841721|0.9874325394630432|0.1473794430494308|0|0|0|-1|-1|634684939.0866053|0|0.1100006|100.0113|3
2021-02-10 21:22:20.473 +0000|26540.24112454167|-0.1063690185546875|0.850006103515625|0.3227996826171875|26540.22116054167|-1.975952063161876|-2.869551716532757|-1.339890025873486|-3.201810121536255|-2.143534183502197|-0.7530496716499329|-0.02468743547797203|0.04662120342254639|0.03729270398616791|XArbitraryZVertical|-0.6947496089111729|-0.3571340894690403|0.2498538017662974|0.5721462442964883|-0.06149419397115707|0.9734593629837036|0.2204435467720032|0|0|0|-1|-1|634684939.0866053|0|0.1100006|100.0113|3
2021-02-10 21:22:20.494 +0000|26540.26108954167|-0.0883026123046875|0.8718109130859375|0.46368408203125|26540.24112454167|-1.988492089690746|-2.922157816544469|-1.273912232067919|-3.121419668197632|-1.972680449485779|-0.6917945742607117|-0.03507471829652786|-0.07386720180511475|0.05381253361701965|XArbitraryZVertical|-0.7054052341382278|-0.3810083061080032|0.2484737568581673|0.5435964290114873|-0.06368013471364975|0.9562526345252991|0.2855277359485626|0|0|0|-1|-1|634684939.0866053|0|0.1100006|100.0113|3
2021-02-10 21:22:20.513 +0000|26540.28105354167|-0.1211395263671875|0.9043121337890625|0.566009521484375|26540.26108954167|-1.985936506418842|-2.956796204119911|-1.208095941780003|-3.215140342712402|-1.755407929420471|-0.6974847316741943|-0.01854687184095383|-0.07449901103973389|0.1063949763774872|XArbitraryZVertical|-0.7151063263814587|-0.4037359142361733|0.2452991527555012|0.5152170760319248|-0.06519332528114319|0.9349421262741089|0.3487595021724701|0|0|0|-1|-1|634684939.0866053|0|0.1100006|100.0113|3
2021-02-10 21:22:20.533 +0000|26540.30101754167|-0.1319427490234375|0.891357421875|0.6623077392578125|26540.28105354167|-1.976848708080673|-2.982027981172317|-1.143484323959646|-2.958470344543457|-1.579116225242615|-0.728926420211792|-0.04772359132766724|0.00684821605682373|0.1342495679855347|XArbitraryZVertical|-0.7238207345620657|-0.4250463906470346|0.2406861111310913|0.4873288735441102|-0.06584756076335907|0.910082995891571|0.409161776304245|0|0|0|-1|-1|634684939.0866053|0|0.1100006|100.0113|3
2021-02-10 21:22:20.554 +0000|26540.32098154167|-0.111572265625|0.95355224609375|0.6893463134765625|26540.30101754167|-1.963966445205548|-3.000685913517026|-1.087914366706394|-2.364952564239502|-1.494634032249451|-0.6764983534812927|-0.07098844647407532|0.03810679912567139|0.1952515840530396|XArbitraryZVertical|-0.7300411850932764|-0.4437407121273044|0.23661640483706|0.4627600207672893|-0.06521148234605789|0.8856604099273682|0.4597319066524506|0|0|0|-1|-1|634684939.0866053|0|0.1100006|100.0113|3
2021-02-10 21:22:20.574 +0000|26540.34094554167|-0.136932373046875|0.936614990234375|0.664947509765625|26540.32098154167|-1.946652128654032|-3.014851112647243|-1.047032698459429|-1.559475064277649|-1.42426335811615|-0.648529589176178|-0.0474679172039032|0.05831241607666016|0.190804123878479|XArbitraryZVertical|-0.7324034134925376|-0.4600553211952079|0.2353266866862368|0.4433460882529229|-0.06321931630373001|0.8659429550170898|0.4961313307285309|0|0|0|-1|-1|634684939.0866053|0|0.1100006|100.0113|3
2021-02-10 21:22:20.594 +0000|26540.36090954167|-0.0899810791015625|0.9137725830078125|0.6818695068359375|26540.34094554167|-1.927114130747696|-3.022986207462561|-1.021973523711|-0.8057886362075806|-1.045840978622437|-0.6625145077705383|-0.07656033337116241|0.08693939447402954|0.1527734994888306|XArbitraryZVertical|-0.7316043130988302|-0.4730371933736342|0.2361003711219683|0.4304039163689793|-0.06173001974821091|0.8531392216682434|0.5180181264877319|0|0|0|-1|-1|634684939.0866053|0|0.1100006|100.0113|3
2021-02-10 21:22:20.613 +0000|26540.38087354167|-0.0512847900390625|0.88055419921875|0.783416748046875|26540.36090954167|-1.904111926673911|-3.019561025083003|-1.00961082971629|-0.2617395222187042|-0.5935598015785217|-0.6440397500991821|-0.04343230277299881|0.06858229637145996|0.152797520160675|XArbitraryZVertical|-0.7287806805515741|-0.482695679672155|0.2365147044492859|0.4241986379265805|-0.0647830069065094|0.8466247916221619|0.5282328128814697|0|0|0|-1|-1|634684939.0866053|0|0.1100006|100.0113|3
2021-02-10 21:22:20.633 +0000|26540.40083754167|-0.0363006591796875|0.8879241943359375|0.847564697265625|26540.38087354167|-1.881043566250348|-3.007656512238759|-1.006337217636673|0.09795777499675751|-0.1780444830656052|-0.6017078757286072|0.009775534272193909|0.04176425933837891|0.230833888053894|XArbitraryZVertical|-0.725169417396298|-0.4890942081098006|0.236197363287875|0.4232338946857061|-0.07143628597259521|0.844878077507019|0.5301676392555237|0|0|0|-1|-1|634684939.0866053|0|0.1100006|100.0113|3
2021-02-10 21:22:20.654 +0000|26540.42080254167|-0.045318603515625|0.8920440673828125|0.95220947265625|26540.40083754167|-1.858436639602816|-2.988252311451689|-1.01070448119753|0.5369383096694946|0.1948757767677307|-0.5432384014129639|0.03643717616796494|0.05561065673828125|0.3136076331138611|XArbitraryZVertical|-0.7211436397436335|-0.4924096430338151|0.2351789020858167|0.4268203780420132|-0.08114539831876755|0.8472062945365906|0.525030791759491|0|0|0|-1|-1|634684939.0866053|0|0.1100006|100.0113|3
2021-02-10 21:22:20.674 +0000|26540.44076654167|-0.082000732421875|0.85675048828125|0.8858642578125|26540.44076654167|-1.809315773832285|-2.922172841683386|-1.045291799599325|1.360210418701172|1.043085932731628|-0.3770302534103394|0.03822223097085953|-0.0001415610313415527|0.4054888486862183|XArbitraryZVertical|-0.7109337105414713|-0.4892693059592166|0.232022036413341|0.4487256863769976|-0.1091908365488052|0.8650709390640259|0.4896223843097687|0|0|0|-1|-1|634684939.0866053|0|0.1100006|100.0113|3
2021-02-10 21:22:20.697 +0000|26540.46073054167|-0.10211181640625|0.8521575927734375|0.82598876953125|26540.44076654167|-1.809315773832285|-2.922172841683386|-1.045291799599325|1.360210418701172|1.043085932731628|-0.3770302534103394|0.03822223097085953|-0.0001415610313415527|0.4054888486862183|XArbitraryZVertical|-0.7109337105414713|-0.4892693059592166|0.232022036413341|0.4487256863769976|-0.1091908365488052|0.8650709390640259|0.4896223843097687|0|0|0|-1|-1|634684939.0866053|0|0.1100006|100.0113|3
2021-02-10 21:22:20.713 +0000|26540.48069454167|-0.1191864013671875|0.829620361328125|0.743499755859375|26540.46073054167|-1.781752950230944|-2.873091775650183|-1.073088187728196|1.669441223144531|1.435261368751526|-0.2672191560268402|0.02707237005233765|-0.02015846967697144|0.3822371959686279|XArbitraryZVertical|-0.7053548668776459|-0.4823154728108927|0.2290383793635408|0.4662486609240755|-0.1266512125730515|0.8786790370941162|0.4603074193000793|0|0|0|-1|-1|634684939.0866053|0|0.1100006|100.0113|3
2021-02-10 21:22:20.733 +0000|26540.50065854167|-0.1572418212890625|0.768341064453125|0.603851318359375|26540.48069454167|-1.750811104859924|-2.814010274387746|-1.106511917387257|1.966343879699707|1.736506104469299|-0.1143534407019615|0.03171077370643616|-0.06397247314453125|0.3541198968887329|XArbitraryZVertical|-0.699412831741842|-0.4720248741381768|0.2256283935513239|0.4869354441463748|-0.1440764963626862|0.894142210483551|0.4239715933799744|0|0|0|-1|-1|634684939.0866053|0|0.1100006|100.0113|3
2021-02-10 21:22:20.759 +0000|26540.52062254167|-0.1977386474609375|0.6780548095703125|0.5308837890625|26540.50065854167|-1.716735014805172|-2.746279484946005|-1.145466156438315|2.16399884223938|1.946044564247131|0.05527642369270325|0.01372747123241425|-0.1031173467636108|0.2499080300331116|XArbitraryZVertical|-0.6931928802445856|-0.4581299840289004|0.2224536235690271|0.5100147573100443|-0.1588995754718781|0.9109025597572327|0.3807989060878754|0|0|0|-1|-1|634684939.0866053|0|0.1100006|100.0113|3
2021-02-10 21:22:20.773 +0000|26540.54058654167|-0.2144927978515625|0.642791748046875|0.364013671875|26540.52062254167|-1.678217446062103|-2.669186841307547|-1.182919116052996|1.835875272750854|2.238223075866699|0.1409710794687271|-0.01753292977809906|-0.2286925911903381|0.2165757119655609|XArbitraryZVertical|-0.6876813220323461|-0.4421472065341583|0.2176464559165985|0.5331324748278881|-0.1721032708883286|0.9257140159606934|0.3367995023727417|0|0|0|-1|-1|634684939.0866053|0|0.1100006|100.0113|3
2021-02-10 21:22:20.793 +0000|26540.56055154167|-0.2409210205078125|0.74627685546875|0.2152862548828125|26540.54058654167|-1.642444691928892|-2.58998197310599|-1.21202182171257|1.326448440551758|2.348335266113281|0.09830716252326965|-0.02089858055114746|-0.2990139126777649|0.1166465282440186|XArbitraryZVertical|-0.6845777506590501|-0.4252970962236131|0.2095743070541428|0.5536735176345241|-0.1840116679668427|0.9363278150558472|0.2990486323833466|0|0|0|-1|-1|634684939.0866053|0|0.1100006|100.0113|3
2021-02-10 21:22:20.813 +0000|26540.58051554167|-0.2419586181640625|0.8455352783203125|0.13995361328125|26540.56055154167|-1.611058409225925|-2.514314289272853|-1.229256977673082|0.7108066082000732|2.275956630706787|-0.05808084830641747|-0.02684496343135834|-0.2270609140396118|-0.0239977240562439|XArbitraryZVertical|-0.6837102169567892|-0.4100338304218696|0.1981947550277781|0.5702028924026766|-0.196589395403862|0.9422401785850525|0.271174818277359|0|0|0|-1|-1|634684939.0866053|0|0.1100006|100.0113|3
2021-02-10 21:22:20.833 +0000|26540.60047954167|-0.231414794921875|0.98370361328125|0.1171112060546875|26540.58051554167|-1.593320314238974|-2.453431465751103|-1.232648312465135|-0.05838476121425629|2.123687028884888|-0.2104121446609497|-0.03698636591434479|-0.1137046217918396|-0.09994548559188843|XArbitraryZVertical|-0.6855853179083685|-0.3976096229900202|0.1835987857804805|0.5815245403585177|-0.2106942385435104|0.9433706402778625|0.2562412917613983|0|0|0|-1|-1|634684939.0866053|0|0.1100006|100.0113|3
2021-02-10 21:22:20.853 +0000|26540.62044354167|-0.2371978759765625|1.028030395507812|0.112945556640625|26540.60047954167|-1.592386666283533|-2.412694180476247|-1.225118749163938|-0.4336783587932587|1.875075221061707|-0.3108198046684265|0.001177385449409485|0.009944260120391846|-0.1356890499591827|XArbitraryZVertical|-0.689684789809769|-0.3882067860508639|0.1673092298498588|0.5879098229219988|-0.2256799042224884|0.9408460855484009|0.2527392506599426|0|0|0|-1|-1|634684939.0866053|0|0.1100006|100.0113|3
2021-02-10 21:22:20.873 +0000|26540.64040754167|-0.2131805419921875|1.03387451171875|0.172210693359375|26540.62044354167|-1.597930508770444|-2.382681818097929|-1.213927535004672|-0.4861330687999725|1.66922390460968|-0.3146634697914124|0.003790482878684998|0.08839529752731323|-0.1475358307361603|XArbitraryZVertical|-0.6941145496556634|-0.3807148444467667|0.1514726528832602|0.5918760119015093|-0.2403932213783264|0.936995267868042|0.2534776031970978|0|0|0|-1|-1|634684939.0866053|0|0.1100006|100.0113|3
2021-02-10 21:22:20.893 +0000|26540.66037154167|-0.2432098388671875|1.021759033203125|0.230621337890625|26540.64040754167|-1.597960754975886|-2.351198414141366|-1.204211108167883|-0.1273159235715866|1.483456611633301|-0.363365113735199|0.03637292981147766|0.09845608472824097|-0.09173232316970825|XArbitraryZVertical|-0.6971715712984614|-0.3742205115749053|0.1371840580493102|0.5958953308504721|-0.254710853099823|0.9335567355155945|0.2521783709526062|0|0|0|-1|-1|634684939.0866053|0|0.1100006|100.0113|3
2021-02-10 21:22:20.913 +0000|26540.68033554167|-0.1984100341796875|1.004730224609375|0.2850189208984375|26540.66037154167|-1.578101180227412|-2.303941803176301|-1.201023765932332|0.4303509294986725|1.451010704040527|-0.3485341668128967|0.03289246559143066|0.08823561668395996|-0.03679203987121582|XArbitraryZVertical|-0.6968165585568281|-0.3679322556598036|0.1255654078780194|0.6027486209758078|-0.2685492038726807|0.9324095845222473|0.2418549209833145|0|0|0|-1|-1|634684939.0866053|0|0.1100006|100.0113|3
2021-02-10 21:22:20.933 +0000|26540.70030054167|-0.17156982421875|0.9304351806640625|0.2820281982421875|26540.68033554167|-1.539011325274045|-2.237112474430936|-1.204780409845433|0.8588849902153015|1.584012031555176|-0.2706455588340759|0.06755435466766357|0.08352756500244141|0.05669353902339935|XArbitraryZVertical|-0.6935164530752798|-0.3600588187131964|0.1155335001202513|0.6132247716822365|-0.2813452184200287|0.9337606430053711|0.2212148457765579|0|0|0|-1|-1|634684939.0866053|0|0.1100006|100.0113|3
2021-02-10 21:22:20.953 +0000|26540.72026454167|-0.210662841796875|0.867889404296875|0.2843780517578125|26540.70030054167|-1.485265468457287|-2.15422869484078|-1.213094418399161|1.072099447250366|1.684086203575134|-0.1823171377182007|0.1218703985214233|0.006914854049682617|0.08602055907249451|XArbitraryZVertical|-0.6882591388220877|-0.3503415436482908|0.1065103885223659|0.6262712934693817|-0.2922042012214661|0.9367039203643799|0.1928796768188477|0|0|0|-1|-1|634684939.0866053|0|0.1100006|100.0113|3
2021-02-10 21:22:20.973 +0000|26540.74022854167|-0.206146240234375|0.9212799072265625|0.2491455078125|26540.72026454167|-1.423505593558939|-2.060871707247168|-1.223537378742704|1.31633198261261|1.893872499465942|0.0008623639587312937|0.1055170297622681|-0.09121853113174438|0.1187133640050888|XArbitraryZVertical|-0.6822412801368778|-0.3385856568513405|0.09784807464564485|0.6405718912404542|-0.3002649247646332|0.9403091073036194|0.1601868271827698|0|0|0|-1|-1|634684939.0866053|0|0.1100006|100.0113|3
2021-02-10 21:22:20.993 +0000|26540.76019254167|-0.1575927734375|0.8589630126953125|0.1612548828125|26540.74022854167|-1.350664123266451|-1.951036286688286|-1.237021510016271|1.440490365028381|2.224156856536865|0.2043420821428299|0.08796495199203491|-0.02014505863189697|0.1522737592458725|XArbitraryZVertical|-0.6754943089333566|-0.3232691301594355|0.08910101058402782|0.6567081166183651|-0.3042124807834625|0.9448124170303345|0.1215909868478775|0|0|0|-1|-1|634684939.0866053|0|0.1100006|100.0113|3
2021-02-10 21:22:21.013 +0000|26540.78015654167|-0.20050048828125|0.952911376953125|0.108642578125|26540.76019254167|-1.272757201684058|-1.831134533114737|-1.250530975064517|1.416338801383972|2.394838094711304|0.3509151041507721|0.1403307616710663|-0.09015834331512451|0.1094999238848686|XArbitraryZVertical|-0.6689055771073215|-0.3050961166380688|0.07964088582890129|0.6731560437828149|-0.3042101263999939|0.9491519331932068|0.08103661984205246|0|0|0|-1|-1|634684939.0866053|0|0.1100006|100.0113|3
2021-02-10 21:22:21.033 +0000|26540.80012054167|-0.1897735595703125|0.8361663818359375|0.0697784423828125|26540.78015654167|-1.173388352023199|-1.687756387057484|-1.265571077042328|1.863943576812744|2.506773233413696|0.5393410325050354|0.1039971709251404|-0.02367973327636719|0.06536602973937988|XArbitraryZVertical|-0.6608778489558119|-0.284207952146002|0.07132796957466706|0.6909259680308698|-0.298455148935318|0.9537792801856995|0.03506738319993019|0|0|0|-1|-1|634684939.0866053|0|0.1100006|100.0113|3
2021-02-10 21:22:21.053 +0000|26540.82008454167|-0.16534423828125|0.837890625|-0.055419921875|26540.80012054167|-1.034357703189478|-1.503762980592561|-1.277585166433425|2.314939498901367|2.582805156707764|0.5475850105285645|0.09105214476585388|-0.0887751579284668|0.1111569404602051|XArbitraryZVertical|-0.6496459995757305|-0.2613045639266995|0.0640481275734401|0.7110399838264233|-0.2883787751197815|0.9573206901550293|-0.01936000026762486|0|0|0|-1|-1|634684939.0866053|0|0.1100006|100.0113|3
2021-02-10 21:22:21.073 +0000|26540.84004954167|-0.172393798828125|1.034591674804688|-0.308624267578125|26540.82008454167|-0.8592660088053885|-1.286064458108034|-1.27998871149111|2.576782464981079|2.480301856994629|0.5339751243591309|0.1017505526542664|-0.109868049621582|0.07030290365219116|XArbitraryZVertical|-0.6348236721778441|-0.2381767506706543|0.05816937505153177|0.7327258567507682|-0.2751819491386414|0.9580126404762268|-0.08054148405790329|0|0|0|-1|-1|634684939.0866053|0|0.1100006|100.0113|3
2021-02-10 21:22:21.092 +0000|26540.86001354167|-0.13287353515625|1.097702026367188|-0.5258026123046875|26540.84004954167|-0.662146695214981|-1.047663972258896|-1.266800713383943|3.241709232330322|2.536678075790405|0.5351925492286682|0.09061601758003235|0.03289735317230225|-0.1072280555963516|XArbitraryZVertical|-0.6157432344127846|-0.2146784822506215|0.05311478748030725|0.756275364360074|-0.2593019604682922|0.9541480541229248|-0.1495468318462372|0|0|0|-1|-1|634684939.0866053|0|0.1100006|100.0113|3
2021-02-10 21:22:21.112 +0000|26540.87997754167|-0.1020965576171875|1.117874145507812|-0.596343994140625|26540.86001354167|-0.4538553647243583|-0.7997752187007083|-1.229464460323995|4.193182468414307|2.448298692703247|0.4689643979072571|0.09557661414146423|0.1620758771896362|-0.2627611458301544|XArbitraryZVertical|-0.5891726141030125|-0.1903677280781264|0.04948081638480006|0.7837011988673865|-0.2400773465633392|0.9423096776008606|-0.233271524310112|0|0|0|-1|-1|634684939.0866053|0|0.1100006|100.0113|3
2021-02-10 21:22:21.132 +0000|26540.89994154167|-0.1233062744140625|1.0120849609375|-0.5670166015625|26540.87997754167|-0.2708841017162033|-0.5824161654756131|-1.1600862766833|5.159054756164551|2.159465551376343|0.2908952534198761|0.1026062369346619|0.1809102892875671|-0.2720165252685547|XArbitraryZVertical|-0.5526044646178521|-0.1670624549959171|0.04772440820430614|0.8151324348030458|-0.2196106165647507|0.9168375730514526|-0.3334368765354156|0|0|0|-1|-1|634684939.0866053|0|0.1100006|100.0113|3
2021-02-10 21:22:21.152 +0000|26540.91990554167|-0.161712646484375|0.6376495361328125|-0.633575439453125|26540.89994154167|-0.1423671280704593|-0.4289918898027552|-1.066974434937036|5.488667964935303|1.703277587890625|0.08519864082336426|0.05432841181755066|0.1064186692237854|-0.1567650437355042|XArbitraryZVertical|-0.5086621783491784|-0.1474720520757513|0.04813424607471018|0.8468753615055086|-0.2008127570152283|0.8757438659667969|-0.4390295743942261|0|0|0|-1|-1|634684939.0866053|0|0.1100006|100.0113|3
2021-02-10 21:22:21.172 +0000|26540.93986954167|-0.0932159423828125|0.428863525390625|-0.78009033203125|26540.91990554167|-0.0596098838158866|-0.3264999566971377|-0.9703065585603903|5.030932426452637|1.498349547386169|0.2428639829158783|0.02934138476848602|-0.09767252206802368|-0.06444424390792847|XArbitraryZVertical|-0.4642236727982078|-0.1299945373732929|0.04974812290167745|0.8747130436570981|-0.1812273263931274|0.8250589966773987|-0.5351955890655518|0|0|0|-1|-1|634684939.0866053|0|0.1100006|100.0113|3
2021-02-10 21:22:21.196 +0000|26540.95983354167|-0.056488037109375|0.3645172119140625|-0.8937835693359375|26540.93986954167|-0.006359379855671777|-0.2559075102049638|-0.8833472119678727|4.353095531463623|1.234743237495422|0.3165406286716461|0.04880762100219727|-0.3096104264259338|-0.1160170435905457|XArbitraryZVertical|-0.4243233752418607|-0.1140109872487761|0.05169378792094585|0.8968159216047714|-0.1606239676475525|0.7728672623634338|-0.6139023303985596|0|0|0|-1|-1|634684939.0866053|0|0.1100006|100.0113|3
2021-02-10 21:22:21.212 +0000|26540.97979854167|-0.0782928466796875|0.2400665283203125|-0.947845458984375|26540.95983354167|0.02917799661567001|-0.2084615580063627|-0.8102991111592476|3.489077806472778|0.8075810670852661|0.3093340694904327|0.07004903256893158|-0.3101867437362671|-0.1806976199150085|XArbitraryZVertical|-0.3905804451177515|-0.1013280242393614|0.05433918807847474|0.9133601316035499|-0.142650306224823|0.7244933843612671|-0.6743590831756592|0|0|0|-1|-1|634684939.0866053|0|0.1100006|100.0113|3
2021-02-10 21:22:21.232 +0000|26540.99976325|-0.0595855712890625|0.35577392578125|-1.001937866210938|26540.97979854167|0.05499499064658778|-0.1781423251328481|-0.7567197869346773|2.32209038734436|0.4345018267631531|0.3576056659221649|0.06998874247074127|-0.3813185691833496|-0.2113707661628723|XArbitraryZVertical|-0.3655207175493856|-0.0927466159283265|0.0582948467734278|0.9243345103652086|-0.1288418471813202|0.6865401268005371|-0.7155853509902954|0|0|0|-1|-1|634684939.0866053|0|0.1100006|100.0113|3
2021-02-10 21:22:21.252 +0000|26541.01972725|-0.049163818359375|0.4441986083984375|-1.050201416015625|26540.99976325|0.07425401618194559|-0.1598306470111195|-0.7209709484865854|1.52360200881958|0.1075525879859924|0.4691431820392609|0.0643729642033577|-0.3360176682472229|-0.2372145056724548|XArbitraryZVertical|-0.3485877795816373|-0.0876987355192419|0.06276088083536337|0.9310513218185845|-0.1195486932992935|0.6601143479347229|-0.7415909767150879|0|0|0|-1|-1|634684939.0866053|0|0.1100006|100.0113|3
2021-02-10 21:22:21.272 +0000|26541.03969125|-0.0338897705078125|0.5872650146484375|-1.052413940429688|26541.01972725|0.09224984378087378|-0.1475032144137951|-0.6963856339304259|1.222650408744812|-0.03503886610269547|0.5471986532211304|0.04863210022449493|-0.2349701523780823|-0.2815549373626709|XArbitraryZVertical|-0.3367165931102121|-0.08487880231737785|0.06833828978054607|0.9352793034349831|-0.1127495020627975|0.6414490938186646|-0.7588350772857666|0|0|0|-1|-1|634684939.0866053|0|0.1100006|100.0113|3
2021-02-10 21:22:21.292 +0000|26541.05965525|-0.0644683837890625|0.647552490234375|-0.989501953125|26541.03969125|0.1129208589010591|-0.1368096849254285|-0.6709399604823565|1.647845983505249|-0.2158791720867157|0.6771756410598755|0.07076404988765717|-0.05835264921188354|-0.2839715480804443|XArbitraryZVertical|-0.3242775828698091|-0.0829726344428976|0.07562648502754746|0.9392764852982081|-0.1068205386400223|0.6217224597930908|-0.7759191989898682|0|0|0|-1|-1|634684939.0866053|0|0.1100006|100.0113|3
2021-02-10 21:22:21.312 +0000|26541.07961925|-0.1007843017578125|0.5445098876953125|-0.9249725341796875|26541.05965525|0.1382755347280506|-0.1272152741206364|-0.633634639598312|2.336974143981934|-0.3566176891326904|0.8472391963005066|0.05091352760791779|0.05932003259658813|-0.2086422443389893|XArbitraryZVertical|-0.3059983417164998|-0.08173570741456736|0.08526771679718577|0.9446765482975216|-0.1022440493106842|0.5920777320861816|-0.7993685603141785|0|0|0|-1|-1|634684939.0866053|0|0.1100006|100.0113|3
2021-02-10 21:22:21.332 +0000|26541.09958325|-0.1489105224609375|0.31939697265625|-0.8552398681640625|26541.07961925|0.1692356004735805|-0.1176461771246043|-0.5831583294289926|2.970139265060425|-0.4490464329719543|1.071182131767273|0.002837628126144409|0.01408004760742188|-0.113760769367218|XArbitraryZVertical|-0.2811821726542217|-0.08035989708251601|0.09764884603328602|0.9512852757327263|-0.09797614067792892|0.5506629943847656|-0.828957736492157|0|0|0|-1|-1|634684939.0866053|0|0.1100006|100.0113|3
2021-02-10 21:22:21.352 +0000|26541.11954825|-0.147979736328125|0.2273406982421875|-0.8216094970703125|26541.09958325|0.2051235056538775|-0.1072997734385754|-0.5239021944255955|3.158977508544922|-0.3931005001068115|1.2920902967453|-0.04093707352876663|-0.09712553024291992|-0.004828691482543945|XArbitraryZVertical|-0.2519312335585022|-0.07799794224932162|0.1125609802461792|0.9580068515145413|-0.09272987395524979|0.5002627372741699|-0.8608939647674561|0|0|0|-1|-1|634684939.0866053|0|0.1100006|100.0113|3
2021-02-10 21:22:21.372 +0000|26541.13951225|-0.1485443115234375|0.0438232421875|-0.798095703125|26541.11954825|0.2430766383764125|-0.09717055215901396|-0.4639995128737623|2.993328809738159|-0.4037085175514221|1.425897002220154|-0.07771444320678711|-0.2193941473960876|0.06644278764724731|XArbitraryZVertical|-0.222228371580464|-0.07475929102979725|0.1289360614543006|0.9635357989277935|-0.08676000684499741|0.4475283324718475|-0.8900511860847473|0|0|0|-1|-1|634684939.0866053|0|0.1100006|100.0113|3
2021-02-10 21:22:21.392 +0000|26541.15947625|-0.1142578125|0.1630401611328125|-0.77569580078125|26541.13951225|0.2797400134484198|-0.08849671285257624|-0.4147369042779936|2.262358903884888|-0.263013482093811|1.451380610466003|-0.0612165778875351|-0.3052928745746613|0.1162765026092529|XArbitraryZVertical|-0.1976405038966746|-0.07153881885510154|0.1453122277477584|0.9668013778397965|-0.08088849484920502|0.4029491543769836|-0.9116408824920654|0|0|0|-1|-1|634684939.0866053|0|0.1100006|100.0113|3
2021-02-10 21:22:21.412 +0000|26541.17944025|-0.106658935546875|0.15869140625|-0.74432373046875|26541.15947625|0.3149524365976317|-0.07925231892635622|-0.3791691698143331|1.645408511161804|-0.2061972916126251|1.486207246780396|-0.05291862785816193|-0.2330180108547211|0.1448218822479248|XArbitraryZVertical|-0.1798714952357933|-0.0679553899713458|0.1612685754717609|0.9679984050329389|-0.07354617863893509|0.370148777961731|-0.9260566234588623|0|0|0|-1|-1|634684939.0866053|0|0.1100006|100.0113|3
2021-02-10 21:22:21.432 +0000|26541.19940425|-0.0878143310546875|0.2706298828125|-0.780609130859375|26541.17944025|0.3500342579334798|-0.07043128892175962|-0.3493999055792978|1.5770263671875|-0.1358544826507568|1.587172508239746|-0.03808120638132095|-0.1718170642852783|0.1853415369987488|XArbitraryZVertical|-0.1650139670401365|-0.06438914557356869|0.1773944605788265|0.9680679874034391|-0.06612101197242737|0.3423340320587158|-0.9372488856315613|0|0|0|-1|-1|634684939.0866053|0|0.1100006|100.0113|3
2021-02-10 21:22:21.452 +0000|26541.21936825|-0.00408935546875|0.329833984375|-0.806793212890625|26541.19940425|0.3879650444822335|-0.05835214570419973|-0.3181107274742033|1.700966119766235|0.09714782238006592|1.78437328338623|-0.05535519495606422|-0.1045511960983276|0.1662595272064209|XArbitraryZVertical|-0.1497963452942865|-0.05878217955402318|0.1947877319060403|0.9675554515530483|-0.05539305508136749|0.3127726316452026|-0.9482114315032959|0|0|0|-1|-1|634684939.0866053|0|0.1100006|100.0113|3
2021-02-10 21:22:21.472 +0000|26541.23933225|-0.001251220703125|0.306976318359375|-0.766937255859375|26541.21936825|0.4293871732816225|-0.04359435954572618|-0.2830077700463754|2.147972106933594|0.16241455078125|1.97009015083313|0.03437014296650887|0.04649960994720459|0.1591061949729919|XArbitraryZVertical|-0.1331644697496913|-0.05112170547353715|0.2138718300359767|0.9663915719848061|-0.04184691235423088|0.2792450189590454|-0.9593076109886169|0|0|0|-1|-1|634684939.0866053|0|0.1100006|100.0113|3
2021-02-10 21:22:21.492 +0000|26541.25929725|0.0038604736328125|0.3085784912109375|-0.7921142578125|26541.23933225|0.4730082573705083|-0.02745495780281742|-0.2382775230994638|2.452785015106201|0.3140810430049896|2.077203750610352|0.02432607486844063|0.1052489131689072|0.1871542930603027|XArbitraryZVertical|-0.112344082172536|-0.0410965828998223|0.23420881928142|0.9647984962806653|-0.02667589299380779|0.2360291630029678|-0.9713797569274902|0|0|0|-1|-1|634684939.0866053|0|0.1100006|100.0113|3
2021-02-10 21:22:21.512 +0000|26541.27926125|0.1024322509765625|0.39569091796875|-0.80926513671875|26541.25929725|0.5155833295781589|-0.009202820779720088|-0.1880084190228009|2.524428129196167|0.6079493761062622|2.001585006713867|-0.009376794099807739|0.09506437182426453|0.1952884793281555|XArbitraryZVertical|-0.08959517093724485|-0.02836014418166315|0.2542351491474599|0.9625657722106215|-0.009040525183081627|0.1869027763605118|-0.9823368191719055|0|0|0|-1|-1|634684939.0866053|0|0.1100006|100.0113|3
2021-02-10 21:22:21.532 +0000|26541.29922525|0.1788787841796875|0.5028533935546875|-0.8687286376953125|26541.27926125|0.5544150718994967|0.01098825646128266|-0.1389914598566802|2.408028841018677|0.7960476875305176|1.827332615852356|0.07871758192777634|0.2471062541007996|0.1984568238258362|XArbitraryZVertical|-0.06828776061398296|-0.01373176093582172|0.2726391749918194|0.9595917199410284|0.01088206935673952|0.1385443657636642|-0.9902964234352112|0|0|0|-1|-1|634684939.0866053|0|0.1100006|100.0113|3
2021-02-10 21:22:21.552 +0000|26541.31918925|0.22979736328125|0.477020263671875|-0.919891357421875|26541.29922525|0.5877950891935254|0.03127116376873751|-0.09235432625335194|2.131962060928345|0.8294799327850342|1.561418771743774|0.1212719976902008|0.3988962769508362|0.1384705901145935|XArbitraryZVertical|-0.04870045525039557|0.00157816302061834|0.288649898030889|0.9561940265009723|0.03113282285630703|0.09222309291362762|-0.9952515363693237|0|0|0|-1|-1|634684939.0866053|0|0.1100006|100.0113|3
2021-02-10 21:22:21.572 +0000|26541.33915325|0.2942962646484375|0.5697174072265625|-0.9812469482421875|26541.31918925|0.613616997787523|0.04929385404176968|-0.05507098702797155|1.41145133972168|0.8482376337051392|1.113102436065674|0.1794538050889969|0.4425917267799377|0.08859497308731079|XArbitraryZVertical|-0.03367859456429432|0.01517205738516883|0.3011647059523657|0.9528564331169306|0.04919919371604919|0.05504315346479416|-0.9972711205482483|0|0|0|-1|-1|634684939.0866053|0|0.1100006|100.0113|3
2021-02-10 21:22:21.592 +0000|26541.35911725|0.34185791015625|0.66497802734375|-1.028427124023438|26541.33915325|0.6301817291641953|0.06599932434078812|-0.03377493575805091|0.6658888459205627|0.7320386171340942|0.6415966153144836|0.2111400663852692|0.5138388872146606|0.02432286739349365|XArbitraryZVertical|-0.02626993926299531|0.02613448632717491|0.3091602511427436|0.9502877585383974|0.06591380387544632|0.03376851603388786|-0.9972537755966187|0|0|0|-1|-1|634684939.0866053|0|0.1100006|100.0113|3
2021-02-10 21:22:21.611 +0000|26541.37908125|0.290252685546875|0.6331024169921875|-1.009185791015625|26541.35911725|0.6365433721442417|0.07882908765001882|-0.0252804551756219|0.1311073303222656|0.5145200490951538|0.05578997358679771|0.2545907199382782|0.6329253315925598|-0.02145981788635254|XArbitraryZVertical|-0.02432539967609778|0.03347009909799775|0.312184443550114|0.9491200885841562|0.07872231304645538|0.02527776174247265|-0.9965760707855225|0|0|0|-1|-1|634684939.0866053|0|0.1100006|100.0113|3
2021-02-10 21:22:21.632 +0000|26541.39904625|0.18695068359375|0.53936767578125|-1.028854370117188|26541.37908125|0.6321106117199108|0.08637604820335394|-0.02711585437379218|-0.2203218787908554|0.2787124514579773|-0.4873205423355103|0.2326107323169708|0.6264671683311462|-0.01863592863082886|XArbitraryZVertical|-0.02629225839320254|0.03682232993357482|0.3099449597780798|0.9496773152601837|0.08623696863651276|0.02711253240704536|-0.9959056377410889|0|0|0|-1|-1|634684939.0866053|0|0.1100006|100.0113|3
2021-02-10 21:22:21.651 +0000|26541.41901025|0.1607513427734375|0.503265380859375|-1.08868408203125|26541.39904625|0.6184035101330552|0.09051989417507125|-0.03468536263091393|-0.4207066297531128|0.1976668685674667|-0.9252172112464905|0.115667000412941|0.5178270936012268|-0.02393448352813721|XArbitraryZVertical|-0.03026824678137361|0.03782069528824562|0.3031936052615778|0.9516969141966526|0.0903419554233551|0.03467840701341629|-0.9953068494796753|0|0|0|-1|-1|634684941.6463478|0|0.1300049|100.0111|3
2021-02-10 21:22:21.672 +0000|26541.43897425|0.1464691162109375|0.438140869140625|-1.182266235351562|26541.41901025|0.5974150144027897|0.0932478611837239|-0.04639982100682213|-0.5117769837379456|0.1709053963422775|-1.259915471076965|0.07199601829051971|0.4784275889396667|-0.07627785205841064|XArbitraryZVertical|-0.03585855070309767|0.03771182460829958|0.2928529718862922|0.9547403884899771|0.09301257133483887|0.04638317227363586|-0.9945839643478394|0|0|0|-1|-1|634684941.6463478|0|0.1300049|100.0111|3
2021-02-10 21:22:21.691 +0000|26541.45893825|0.162261962890625|0.3756256103515625|-1.201553344726562|26541.43897425|0.5708679338721679|0.09579024165110217|-0.05676557123730907|-0.2381131201982498|0.1990338712930679|-1.468673586845398|0.04637124389410019|0.375424325466156|-0.1678087711334229|XArbitraryZVertical|-0.04067494907054274|0.03793957559581037|0.2798339795861436|0.9584358006757238|0.09548976272344589|0.0567350909113884|-0.9938122630119324|0|0|0|-1|-1|634684941.6463478|0|0.1300049|100.0111|3
2021-02-10 21:22:21.711 +0000|26541.47890225|0.16278076171875|0.319915771484375|-1.178329467773438|26541.45893825|0.5400522633229519|0.09756741875681811|-0.05954219336712142|0.3173692226409912|0.1732811033725739|-1.623936772346497|0.07164425402879715|0.3434775769710541|-0.202778160572052|XArbitraryZVertical|-0.04165638839120193|0.0390454885019151|0.2649222253250246|0.9625780808934039|0.09724006801843643|0.05950701609253883|-0.993480384349823|0|0|0|-1|-1|634684941.6463478|0|0.1300049|100.0111|3
2021-02-10 21:22:21.731 +0000|26541.49886625|0.1908111572265625|0.216766357421875|-1.165176391601562|26541.47890225|0.5060623156706501|0.09850056472880236|-0.05176820058329107|0.7769556045532227|0.1151868477463722|-1.684538602828979|0.05990199744701385|0.2933476865291595|-0.1892706155776978|XArbitraryZVertical|-0.03734690793641691|0.04117557761699108|0.2487188612735991|0.9669792033387751|0.09820961207151413|0.05174507945775986|-0.993819534778595|0|0|0|-1|-1|634684941.6463478|0|0.1300049|100.0111|3
2021-02-10 21:22:21.751 +0000|26541.51883025|0.1956634521484375|0.16876220703125|-1.195022583007812|26541.49886625|0.4700288264418852|0.09825076380555495|-0.03769293753779543|0.9170200228691101|0.02609458193182945|-1.763930320739746|0.08599794656038284|0.2040762305259705|-0.1773282885551453|XArbitraryZVertical|-0.02973775764572564|0.04336429879728979|0.2316347918565715|0.9713807962767457|0.09802309423685074|0.03768401220440865|-0.9944704174995422|0|0|0|-1|-1|634684941.6463478|0|0.1300049|100.0111|3
2021-02-10 21:22:21.771 +0000|26541.53879525|0.233795166015625|0.2343597412109375|-1.249771118164062|26541.51883025|0.432121470045602|0.0971687997178986|-0.02351889491813067|0.8627400398254395|-0.02803725749254227|-1.892401933670044|0.08954961597919464|0.1482361853122711|-0.1865567564964294|XArbitraryZVertical|-0.02188309734027392|0.04491484140515809|0.2135580247046621|0.9756520234364726|0.09698913246393204|0.02351672761142254|-0.9950075745582581|0|0|0|-1|-1|634684941.6463478|0|0.1300049|100.0111|3
2021-02-10 21:22:21.791 +0000|26541.55875925|0.279510498046875|0.2961273193359375|-1.239242553710938|26541.53879525|0.3917561706980732|0.09532595660498402|-0.01033465642406846|0.8514856100082397|-0.09898030012845993|-2.034173250198364|0.1281206011772156|0.1984973102807999|-0.2470553517341614|XArbitraryZVertical|-0.01433564413079294|0.04572864181055414|0.194162781732798|0.9797980753651619|0.0951765701174736|0.01033447217196226|-0.9954067468643188|0|0|0|-1|-1|634684941.6463478|0|0.1300049|100.0111|3
2021-02-10 21:22:21.811 +0000|26541.57872325|0.276214599609375|0.3266448974609375|-1.149978637695312|26541.55875925|0.3476997974541755|0.09175909477753984|0.003625014390861867|0.9473896026611328|-0.263252854347229|-2.189440250396729|0.1769249588251114|0.2862330377101898|-0.2579365968704224|XArbitraryZVertical|-0.006149933345689494|0.04548522750154649|0.1728750545221641|0.9838737459978193|0.09162978082895279|-0.003625006414949894|-0.9957865476608276|0|0|0|-1|-1|634684941.6463478|0|0.1300049|100.0111|3
2021-02-10 21:22:21.831 +0000|26541.59868725|0.2972869873046875|0.242340087890625|-1.049224853515625|26541.57872325|0.3012474969248021|0.08577470569406005|0.01928987960369095|1.009092092514038|-0.3947352170944214|-2.348560571670532|0.1762177646160126|0.356980949640274|-0.1754162907600403|XArbitraryZVertical|0.003093637462015185|0.04383271539992423|0.1503187244972853|0.9876605886048451|0.08565362542867661|-0.0192886833101511|-0.9961382746696472|0|0|0|-1|-1|634684941.6463478|0|0.1300049|100.0111|3
2021-02-10 21:22:21.851 +0000|26541.61865125|0.2984161376953125|0.049224853515625|-0.969085693359375|26541.59868725|0.2499285805054182|0.0776120372460402|0.03235926409750815|0.7256674766540527|-0.53508460521698|-2.687114715576172|0.2186948508024216|0.3170673549175262|-0.05336743593215942|XArbitraryZVertical|0.0112057709409732|0.04050372170544256|0.125151944795632|0.9912471919598009|0.07749355584383011|-0.03235361725091934|-0.9964677691459656|0|0|0|-1|-1|634684941.6463478|0|0.1300049|100.0111|3
2021-02-10 21:22:21.871 +0000|26541.63861525|0.2264404296875|-0.242767333984375|-0.867156982421875|26541.61865125|0.1913493057637752|0.06802390116428284|0.03564786624364281|-0.05515136942267418|-0.6521191596984863|-3.108537435531616|0.2256356179714203|0.1612354069948196|-0.004228293895721436|XArbitraryZVertical|0.01448324068959991|0.03554611956390772|0.09606164320442229|0.9946351092652853|0.06792826950550079|-0.03564031794667244|-0.9970534443855286|0|0|0|-1|-1|634684941.6463478|0|0.1300049|100.0111|3
2021-02-10 21:22:21.891 +0000|26541.65857925|0.19952392578125|-0.3846435546875|-0.8470001220703125|26541.63861525|0.1271287932354353|0.05679418943929548|0.02075513327627522|-0.9898967742919922|-0.6379606127738953|-3.350859642028809|0.1948202699422836|-0.1808760017156601|0.1173743009567261|XArbitraryZVertical|0.008548757663293069|0.02899333060875162|0.06378661860512186|0.997505766499771|0.05675143748521805|-0.02075364254415035|-0.9981726408004761|0|0|0|-1|-1|634684941.6463478|0|0.1300049|100.0111|3
2021-02-10 21:22:21.911 +0000|26541.67854325|0.1324005126953125|-0.381988525390625|-0.8403778076171875|26541.65857925|0.06198388113024593|0.04480990145181893|-0.009120490192056945|-1.479280710220337|-0.601767361164093|-3.259625434875488|0.1572791486978531|-0.3507798910140991|0.1623610258102417|XArbitraryZVertical|-0.005251091294907239|0.02225081102630758|0.03087676344113057|0.9992617928916265|0.04479304328560829|0.009120363742113113|-0.9989546537399292|0|0|0|-1|-1|634684941.6463478|0|0.1300049|100.0111|3
2021-02-10 21:22:21.931 +0000|26541.69850825|0.163482666015625|-0.4652252197265625|-0.9737548828125|26541.67854325|0.001300677716514987|0.03247337965228542|-0.03796382310180074|-1.058409452438354|-0.4820859730243683|-2.884824752807617|0.1163594797253609|-0.4205688238143921|0.1544685959815979|XArbitraryZVertical|-0.01898882181898774|0.01622070497040013|0.000341964663292842|0.9996880980347647|0.03244427964091301|0.03795470297336578|-0.9987526535987854|0|0|0|-1|-1|634684941.6463478|0|0.1300049|100.0111|3
2021-02-10 21:22:21.951 +0000|26541.71847225|0.1848907470703125|-0.61663818359375|-1.011993408203125|26541.69850825|-0.04934329880599502|0.0215365806392068|-0.05039828923025542|-0.114457406103611|-0.4256702065467834|-2.186604022979736|0.1133649051189423|-0.5058823227882385|0.04155898094177246|XArbitraryZVertical|-0.02492179373532791|0.01138292680139856|-0.02493111934176347|0.9993136746952921|0.02150757238268852|0.05037695541977882|-0.9984986782073975|0|0|0|-1|-1|634684941.6463478|0|0.1300049|100.0111|3
2021-02-10 21:22:21.971 +0000|26541.73843625|0.1480712890625|-0.7709197998046875|-0.910491943359375|26541.71847225|-0.08481204342594133|0.01080580719285878|-0.04517491972433855|0.6417520046234131|-0.4420317709445953|-1.351531744003296|0.1901179403066635|-0.6286556124687195|-0.02141851186752319|XArbitraryZVertical|-0.02233591900102998|0.00635410539204447|-0.04250379981620511|0.9988263466420768|0.01079457253217697|0.04515955597162247|-0.9989214539527893|0|0|0|-1|-1|634684941.6463478|0|0.1300049|100.0111|3
2021-02-10 21:22:21.991 +0000|26541.75840025|0.06134033203125|-0.84539794921875|-0.8070068359375|26541.73843625|-0.1040702837515508|0.001949845643843898|-0.03096270469182147|0.7553865313529968|-0.3682020306587219|-0.5931873321533203|0.1680950820446014|-0.7371497750282288|0.04676002264022827|XArbitraryZVertical|-0.01540907081205106|0.001778664529135819|-0.05202047409868581|0.9985256117109843|0.00194890983402729|0.03095775842666626|-0.9995188117027283|0|0|0|-1|-1|634684941.6463478|0|0.1300049|100.0111|3
2021-02-10 21:22:22.011 +0000|26541.77836425|0.03173828125|-0.7137908935546875|-0.80059814453125|26541.75840025|-0.109603354006327|-0.003911706784757687|-0.01792960875633019|0.5269195437431335|-0.2023877501487732|-0.001258754869922996|0.08095273375511169|-0.8824000954627991|0.1735529899597168|XArbitraryZVertical|-0.009058334180597689|-0.001461804500044933|-0.05475443234634979|0.998457791531009|-0.003911068197339773|0.01792864874005318|-0.9998316168785095|0|0|0|-1|-1|634684941.6463478|0|0.1300049|100.0111|3
2021-02-10 21:22:22.038 +0000|26541.79832825|0.0510101318359375|-0.55401611328125|-0.879730224609375|26541.77836425|-0.1045607142214704|-0.006044836383892546|-0.008623183681313|0.479921817779541|-0.02079398930072784|0.5144901871681213|0.05110381916165352|-0.7582568526268005|0.2051905393600464|XArbitraryZVertical|-0.004463606894049624|-0.002792948629046474|-0.05224280220612623|0.9986206166826476|-0.00604457501322031|0.008623076602816582|-0.9999445676803589|0|0|0|-1|-1|634684941.6463478|0|0.1300049|100.0111|3
2021-02-10 21:22:22.054 +0000|26541.81829225|0.033294677734375|-0.4066314697265625|-0.892364501953125|26541.79832825|-0.08953724387831671|-0.004730053788679012|0.002377859591414916|0.6401724815368652|0.1417131125926971|0.9756929278373718|0.04273970797657967|-0.5871149301528931|0.1479809880256653|XArbitraryZVertical|0.001081891417877161|-0.002415861984341598|-0.04475631744167089|0.9989945123615043|-0.004730022978037596|-0.002377857454121113|-0.9999859929084778|0|0|0|-1|-1|634684941.6463478|0|0.1300049|100.0111|3
2021-02-10 21:22:22.071 +0000|26541.83825725|-0.046356201171875|-0.390777587890625|-0.7515411376953125|26541.83825725|-0.03622389033124608|0.006057046474584281|0.03429310667324621|0.8821039795875549|0.4681940674781799|1.577514410018921|-0.03574701026082039|-0.3683472871780396|0.212574303150177|XArbitraryZVertical|0.01719766337779375|0.002717052917215626|-0.01805629172342381|0.9996853806910857|0.006053448189049959|-0.03428638726472855|-0.9993937015533447|0|0|0|-1|-1|634684941.6463478|0|0.1300049|100.0111|3
2021-02-10 21:22:22.091 +0000|26541.85822125|-0.00762939453125|-0.2924346923828125|-0.7472991943359375|26541.83825725|-0.03622389033124608|0.006057046474584281|0.03429310667324621|0.8821039795875549|0.4681940674781799|1.577514410018921|-0.03574701026082039|-0.3683472871780396|0.212574303150177|XArbitraryZVertical|0.01719766337779375|0.002717052917215626|-0.01805629172342381|0.9996853806910857|0.006053448189049959|-0.03428638726472855|-0.9993937015533447|0|0|0|-1|-1|634684941.6463478|0|0.1300049|100.0111|3
2021-02-10 21:22:22.110 +0000|26541.87818525|-0.0116119384765625|-0.220001220703125|-0.77606201171875|26541.85822125|-0.004527211098123155|0.01708661536409522|0.04978306579247047|0.6116119623184204|0.7338113188743591|1.58022129535675|-0.04861974716186523|-0.2637293040752411|0.2500801682472229|XArbitraryZVertical|0.02490732165464132|0.008484198256277822|-0.002050188801614654|0.9996517109925768|0.01706461608409882|-0.04976250603795052|-0.9986152648925781|0|0|0|-1|-1|634684941.6463478|0|0.1300049|100.0111|3
2021-02-10 21:22:22.130 +0000|26541.89814925|0.048248291015625|-0.1193389892578125|-0.80322265625|26541.87818525|0.02612929425480126|0.03162132261049732|0.06107100419646546|0.4642645120620728|0.9089171886444092|1.527335047721863|-0.03596685826778412|-0.1993886977434158|0.2389850616455078|XArbitraryZVertical|0.03031788393406263|0.01620009501709789|0.01353920235865151|0.9993173707942201|0.0315571129322052|-0.06103304773569107|-0.9976367950439453|0|0|0|-1|-1|634684941.6463478|0|0.1300049|100.0111|3
2021-02-10 21:22:22.150 +0000|26541.91811325|0.0183563232421875|-0.1864776611328125|-0.7470855712890625|26541.89814925|0.0558649557815812|0.04857041659802709|0.07060885610126266|0.4076078534126282|0.9616004824638367|1.483959794044495|-0.008330199867486954|-0.04715610295534134|0.1918427348136902|XArbitraryZVertical|0.03459515171059346|0.02524373855057777|0.02875998944600946|0.9986685507001394|0.04843034222722054|-0.07055019587278366|-0.9963318705558777|0|0|0|-1|-1|634684941.6463478|0|0.1300049|100.0111|3
2021-02-10 21:22:22.170 +0000|26541.93807725|0.0399932861328125|-0.22222900390625|-0.7764129638671875|26541.91811325|0.0845682612917627|0.06652063512007984|0.07828765581183261|0.157832458615303|1.05331289768219|1.424725651741028|-0.04191491007804871|-0.08046843856573105|0.2319605946540833|XArbitraryZVertical|0.03767260028542081|0.03485234346783835|0.04351599023688552|0.9977336444688705|0.06626798957586288|-0.07820770889520645|-0.9947322010993958|0|0|0|-1|-1|634684941.6463478|0|0.1300049|100.0111|3
2021-02-10 21:22:22.190 +0000|26541.95804125|0.2018585205078125|-0.0641021728515625|-0.8750152587890625|26541.93807725|0.1125937131731794|0.08753306813551981|0.0804397218545826|-0.1253440082073212|1.296612143516541|1.392823934555054|-0.06759209930896759|-0.1792600452899933|0.2680357098579407|XArbitraryZVertical|0.03764702989555307|0.04590819385695952|0.05792423520683887|0.9965541490845319|0.08713865280151367|-0.08035299926996231|-0.9929502606391907|0|0|0|-1|-1|634684941.6463478|0|0.1300049|100.0111|3
2021-02-10 21:22:22.210 +0000|26541.97800625|0.183929443359375|-0.0682525634765625|-0.909423828125|26541.95804125|0.1404510546147086|0.1120016524919656|0.07872068621283614|-0.2225154042243958|1.329820394515991|1.364711165428162|0.07423223555088043|0.02021349966526031|0.1320295929908752|XArbitraryZVertical|0.03526729381964146|0.05854714206931193|0.07220062017314414|0.9950455396512082|0.1114215031266212|-0.07863941043615341|-0.9906569123268127|0|0|0|-1|-1|634684941.6463478|0|0.1300049|100.0111|3
2021-02-10 21:22:22.230 +0000|26541.99796879167|0.1762237548828125|-0.1376800537109375|-0.87432861328125|26541.97800625|0.168146008701455|0.1362889891544926|0.07862952495024281|-0.1953573524951935|1.320225477218628|1.40539288520813|0.04794774949550629|0.003994084894657135|0.07316100597381592|XArbitraryZVertical|0.03336138803730447|0.07109173780028903|0.08638122808293319|0.9931622774693004|0.1354476660490036|-0.07854852825403214|-0.9876659512519836|0|0|0|-1|-1|634684941.6463478|0|0.1300049|100.0111|3
2021-02-10 21:22:22.250 +0000|26542.01793279167|0.1346588134765625|-0.252349853515625|-0.7876129150390625|26541.99796879167|0.1976201359866965|0.1597276695493224|0.07787661692502597|-0.3628516495227814|1.277360439300537|1.501721978187561|0.02496547996997833|-0.03793999552726746|0.09984844923019409|XArbitraryZVertical|0.03075093157080283|0.08315766868203867|0.1013509035806028|0.9908921566833049|0.1585672944784164|-0.07779792696237564|-0.9842783808708191|0|0|0|-1|-1|634684941.6463478|0|0.1300049|100.0111|3
2021-02-10 21:22:22.270 +0000|26542.03789679167|0.1162567138671875|-0.3468780517578125|-0.6483917236328125|26542.01793279167|0.2302367584876351|0.1830901385269087|0.07212020074425375|-0.839204728603363|1.329637289047241|1.612942457199097|-0.041367307305336|-0.148157149553299|0.1575332880020142|XArbitraryZVertical|0.02516994759947198|0.09487691965019553|0.11758292836299|0.9882000077907804|0.1815956383943558|-0.07205769419670105|-0.9807296991348267|0|0|0|-1|-1|634684941.6463478|0|0.1300049|100.0111|3
2021-02-10 21:22:22.290 +0000|26542.05786079167|0.257965087890625|-0.045013427734375|-0.865875244140625|26542.03789679167|0.2666199928122799|0.2074025601868437|0.05827941565958557|-1.161540031433105|1.363309264183044|1.68010675907135|-0.09533967077732086|-0.2989007830619812|0.3132572174072266|XArbitraryZVertical|0.01496896929069718|0.1064052616428124|0.1351345408070889|0.9849835828523942|0.2055692225694656|-0.0582464300096035|-0.9769077301025391|0|0|0|-1|-1|634684941.6463478|0|0.1300049|100.0111|3
2021-02-10 21:22:22.310 +0000|26542.07782479167|0.448974609375|0.223663330078125|-1.185516357421875|26542.05786079167|0.3057430050613719|0.2352161056585211|0.04362574683903947|-1.054295301437378|1.612669944763184|1.861423254013062|-0.03391776978969574|-0.1122871488332748|0.203411340713501|XArbitraryZVertical|0.003544403728625922|0.1192395128831482|0.153718288307255|0.980887466728101|0.2328314036130905|-0.04361191019415855|-0.9715387225151062|0|0|0|-1|-1|634684941.6463478|0|0.1300049|100.0111|3
2021-02-10 21:22:22.330 +0000|26542.09778879167|0.4571380615234375|0.20184326171875|-1.151641845703125|26542.07782479167|0.3478694243234707|0.2671933675218258|0.0395739957121887|-0.299789160490036|1.72967267036438|2.118719339370728|0.1635799705982208|0.2345709800720215|-0.1512296199798584|XArbitraryZVertical|-0.003733362338721672|0.1345577459849748|0.1740790419243625|0.97548795257863|0.2638187110424042|-0.03956366702914238|-0.9637605547904968|0|0|0|-1|-1|634684941.6463478|0|0.1300049|100.0111|3
2021-02-10 21:22:22.350 +0000|26542.11775279167|0.4882354736328125|0.249542236328125|-0.98675537109375|26542.11775279167|0.4277742360315038|0.335850358221223|0.07601351100288664|0.7796996235847473|1.813933134078979|2.013339996337891|0.1279835999011993|0.3331119418144226|-0.05130219459533691|XArbitraryZVertical|0.001158558767261675|0.1711625188433639|0.21532926504973|0.9614236862687361|0.3286204636096954|-0.0759403333067894|-0.9414041042327881|0|0|0|-1|-1|634684941.6463478|0|0.1300049|100.0111|3
2021-02-10 21:22:22.370 +0000|26542.13771779167|0.7053375244140625|0.4769744873046875|-1.07452392578125|26542.11775279167|0.4277742360315038|0.335850358221223|0.07601351100288664|0.7796996235847473|1.813933134078979|2.013339996337891|0.1279835999011993|0.3331119418144226|-0.05130219459533691|XArbitraryZVertical|0.001158558767261675|0.1711625188433639|0.21532926504973|0.9614236862687361|0.3286204636096954|-0.0759403333067894|-0.9414041042327881|0|0|0|-1|-1|634684941.6463478|0|0.1300049|100.0111|3
2021-02-10 21:22:22.390 +0000|26542.15768179167|0.807952880859375|0.5119476318359375|-1.306884765625|26542.13771779167|0.4544880877375454|0.3654904444954015|0.103654388425074|0.7943835854530334|1.424075484275818|1.437182426452637|0.2961986064910889|0.5219716429710388|-0.09717196226119995|XArbitraryZVertical|0.008744211389265089|0.1882966789479903|0.2304166293531275|0.9546602167479765|0.3554890751838684|-0.1034688726067543|-0.9289358258247375|0|0|0|-1|-1|634684941.6463478|0|0.1300049|100.0111|3
2021-02-10 21:22:22.410 +0000|26542.17764579167|0.755096435546875|0.434967041015625|-1.321792602539062|26542.15768179167|0.4724058062311872|0.3877544129651846|0.1209537457084232|0.1380029767751694|0.9914474487304688|0.8959887623786926|0.4190551340579987|0.6709977388381958|-0.3508089780807495|XArbitraryZVertical|0.01265728491378257|0.2008515734320104|0.2405298760853989|0.9495492793106637|0.3753480315208435|-0.1206590384244919|-0.9189968705177307|0|0|0|-1|-1|634684941.6463478|0|0.1300049|100.0111|3
2021-02-10 21:22:22.430 +0000|26542.19760979167|0.676788330078125|0.3917083740234375|-1.210052490234375|26542.17764579167|0.4858031504417702|0.4020820330226905|0.1236559244161723|-0.3443701565265656|0.6351460814476013|0.4542465507984161|0.3906599283218384|0.5553783774375916|-0.4234026074409485|XArbitraryZVertical|0.01082923904838263|0.208019148191866|0.2472017711691043|0.9463097398266261|0.3883470892906189|-0.1233410313725471|-0.913221538066864|0|0|0|-1|-1|634684941.6463478|0|0.1300049|100.0111|3
2021-02-10 21:22:22.450 +0000|26542.21757379167|0.5614166259765625|0.2673187255859375|-1.0615234375|26542.19760979167|0.494548612504374|0.4109609122225382|0.1188839920905822|-0.3497147560119629|0.3281093835830688|0.1328836977481842|0.2944914996623993|0.5371221899986267|-0.3417474031448364|XArbitraryZVertical|0.006535844902559465|0.2117166539389765|0.2509424215926945|0.9445428404241962|0.3966706693172455|-0.1186041533946991|-0.9102666974067688|0|0|0|-1|-1|634684941.6463478|0|0.1300049|100.0111|3
2021-02-10 21:22:22.470 +0000|26542.23753779167|0.4869232177734375|0.163970947265625|-1.021011352539062|26542.21757379167|0.4958585234214964|0.4141996779615603|0.1137929563824055|-0.1826131194829941|0.05943064391613007|-0.2143791168928146|0.1978322565555573|0.4085914492607117|-0.1815615296363831|XArbitraryZVertical|0.003571474676449944|0.2126691160337652|0.2510999906952916|0.9443029500263419|0.3998545408248901|-0.1135475337505341|-0.9095181822776794|0|0|0|-1|-1|634684941.6463478|0|0.1300049|100.0111|3
2021-02-10 21:22:22.490 +0000|26542.25750279167|0.46044921875|0.123809814453125|-1.050537109375|26542.23753779167|0.4905860161934136|0.4142581290397942|0.1082667393269569|-0.1431102454662323|-0.1086837947368622|-0.4786309003829956|0.09317779541015625|0.2924730479717255|-0.1171968579292297|XArbitraryZVertical|0.00149811934305002|0.2120615353784288|0.248095890953114|0.945238671024703|0.400154173374176|-0.1080553531646729|-0.9100553393363953|0|0|0|-1|-1|634684941.6463478|0|0.1300049|100.0111|3
2021-02-10 21:22:22.510 +0000|26542.27746679167|0.46868896484375|0.0858917236328125|-1.064453125|26542.25750279167|0.4816086845022837|0.4124570673931789|0.1015634317841674|-0.104350358247757|-0.1536530703306198|-0.5808973908424377|0.07109859585762024|0.2311496436595917|-0.1243946552276611|XArbitraryZVertical|-0.0005206055015192095|0.2104540261283151|0.2432236675668914|0.9468638319077265|0.398795872926712|-0.1013889163732529|-0.9114176630973816|0|0|0|-1|-1|634684941.6463478|0|0.1300049|100.0111|3
2021-02-10 21:22:22.530 +0000|26542.29743079167|0.452880859375|0.0753631591796875|-1.0384521484375|26542.27746679167|0.4710824452154825|0.4103414479964378|0.09676935332811429|0.1223355159163475|-0.1693597584962845|-0.5746825337409973|0.06563621759414673|0.189712256193161|-0.1502784490585327|XArbitraryZVertical|-0.001445762365689389|0.2089273448732814|0.2377889701096769|0.9485798067903921|0.3970561027526855|-0.09661839157342911|-0.9126945734024048|0|0|0|-1|-1|634684941.6463478|0|0.1300049|100.0111|3
2021-02-10 21:22:22.564 +0000|26542.31739479167|0.42608642578125|-0.0118408203125|-0.9665679931640625|26542.29743079167|0.458729136617977|0.4080958759338977|0.09732344394352119|0.4162201881408691|-0.1721349358558655|-0.5499609112739563|0.06195545196533203|0.1794147342443466|-0.1410307884216309|XArbitraryZVertical|0.0003696304343634963|0.2079244392948634|0.2319770675782301|0.9502388397965973|0.3949842751026154|-0.09716987609863281|-0.9135345816612244|0|0|0|-1|-1|634684941.6463478|0|0.1300049|100.0111|3
2021-02-10 21:22:22.576 +0000|26542.33735879167|0.387603759765625|-0.1143341064453125|-0.9433746337890625|26542.31739479167|0.4446141287402312|0.4053784691021111|0.1023318111612164|0.5589392781257629|-0.2437560111284256|-0.5407922267913818|0.0453643798828125|0.115291103720665|-0.07128196954727173|XArbitraryZVertical|0.004538235194981252|0.2071387683807045|0.2257264050799924|0.9519037134904449|0.3923035264015198|-0.1021533012390137|-0.9141458868980408|0|0|0|-1|-1|634684941.6463478|0|0.1300049|100.0111|3
2021-02-10 21:22:22.590 +0000|26542.35732279167|0.3950958251953125|-0.1241455078125|-0.94635009765625|26542.33735879167|0.4301879413736656|0.401940621491313|0.107456484616126|0.460765153169632|-0.257162481546402|-0.5799369812011719|-0.001390576362609863|0.01656680554151535|-0.02874547243118286|XArbitraryZVertical|0.008863651369933863|0.20597031340049|0.2193146747184707|0.953623995224945|0.3889486193656921|-0.107249803841114|-0.9149953126907349|0|0|0|-1|-1|634684941.6463478|0|0.1300049|100.0111|3
2021-02-10 21:22:22.610 +0000|26542.37728679167|0.3798828125|-0.1292877197265625|-0.9886322021484375|26542.35732279167|0.4158868602458878|0.3978301617792627|0.1096300212799034|0.2981131970882416|-0.3248368799686432|-0.6382063031196594|0.006661146879196167|-0.01316331326961517|-0.02911102771759033|XArbitraryZVertical|0.01181617016031985|0.2041463452523406|0.212666376753119|0.955488253654499|0.3850930631160736|-0.1094105541706085|-0.9163693189620972|0|0|0|-1|-1|634684941.6463478|0|0.1300049|100.0111|3
2021-02-10 21:22:22.630 +0000|26542.39725179167|0.384185791015625|-0.1254730224609375|-0.99102783203125|26542.37728679167|0.4020544735789828|0.3923987663091246|0.1098050922884523|0.2508819103240967|-0.3554950058460236|-0.604575514793396|0.003854066133499146|-0.02852275222539902|-0.0616118311882019|XArbitraryZVertical|0.01387150288698643|0.2014764553792702|0.2060320885348928|0.9574787777649207|0.3801029026508331|-0.1095845699310303|-0.9184296131134033|0|0|0|-1|-1|634684941.6463478|0|0.1300049|100.0111|3
2021-02-10 21:22:22.650 +0000|26542.41721579167|0.3568878173828125|-0.135833740234375|-0.96746826171875|26542.39725179167|0.3896969040351155|0.3859810719935525|0.11071839201671|0.3056282103061676|-0.4333433508872986|-0.4870724081993103|0.01165544986724854|-0.009731695055961609|-0.068867027759552|XArbitraryZVertical|0.01619812243643226|0.1983913336151187|0.2001436021184715|0.9593337258141691|0.3741630911827087|-0.1104923188686371|-0.920756995677948|0|0|0|-1|-1|634684941.6463478|0|0.1300049|100.0111|3
2021-02-10 21:22:22.670 +0000|26542.43717979167|0.357421875|-0.15460205078125|-0.929534912109375|26542.41721579167|0.3789579367985978|0.3781910554087071|0.1141348956719646|0.4175394177436829|-0.4640083909034729|-0.3778507709503174|-0.004456520080566406|-0.0213514044880867|-0.04862099885940552|XArbitraryZVertical|0.01967105933633314|0.1948570677729765|0.1952180141486603|0.9610066026846357|0.3668375611305237|-0.113887257874012|-0.923287570476532|0|0|0|-1|-1|634684941.6463478|0|0.1300049|100.0111|3
2021-02-10 21:22:22.690 +0000|26542.45714379167|0.3341064453125|-0.178192138671875|-0.904876708984375|26542.43717979167|0.3693131689613456|0.3696278494108043|0.1195468029150576|0.4180501401424408|-0.5141192674636841|-0.3366396725177765|-0.0001389086246490479|-0.02783248573541641|-0.01787310838699341|XArbitraryZVertical|0.02404182887343634|0.1910985346520123|0.1909508745852327|0.9625181309431351|0.3586899936199188|-0.1192622557282448|-0.9258067011833191|0|0|0|-1|-1|634684941.6463478|0|0.1300049|100.0111|3
2021-02-10 21:22:22.710 +0000|26542.47710779167|0.344207763671875|-0.1805419921875|-0.8972930908203125|26542.45714379167|0.3605027507379135|0.3606733172273396|0.1249357894530201|0.3577484786510468|-0.5185109972953796|-0.3058347105979919|-0.0133463442325592|-0.05051411688327789|0.01976674795150757|XArbitraryZVertical|0.02832738634615787|0.1871210037796247|0.1870412108778076|0.963949597233376|0.3501536548137665|-0.1246110200881958|-0.9283666014671326|0|0|0|-1|-1|634684941.6463478|0|0.1300049|100.0111|3
2021-02-10 21:22:22.730 +0000|26542.49707179167|0.35662841796875|-0.162750244140625|-0.88946533203125|26542.47710779167|0.3525758458399231|0.3514357196303593|0.1282672790573548|0.2613995969295502|-0.5173797011375427|-0.3115114271640778|-0.004076778888702393|-0.05366376042366028|0.03466695547103882|XArbitraryZVertical|0.03152942000560157|0.1828185173713057|0.1833508733081524|0.9653837459411402|0.3414181470870972|-0.1279158443212509|-0.9311665892601013|0|0|0|-1|-1|634684941.6463478|0|0.1300049|100.0111|3
2021-02-10 21:22:22.750 +0000|26542.51703679167|0.3390960693359375|-0.13238525390625|-0.8863677978515625|26542.49707179167|0.344642418816533|0.3420934438419164|0.1298800368449448|0.1715081185102463|-0.5455753207206726|-0.3493211269378662|0.02834266424179077|-0.03749226033687592|0.03729993104934692|XArbitraryZVertical|0.03387529826696881|0.1783044749958281|0.1794935685999969|0.966872339381857|0.3326345384120941|-0.1295151859521866|-0.9341199398040771|0|0|0|-1|-1|634684941.6463478|0|0.1300049|100.0111|3
2021-02-10 21:22:22.769 +0000|26542.53700079167|0.328369140625|-0.181488037109375|-0.89935302734375|26542.51703679167|0.3367587528796864|0.332744618012897|0.1311925589548975|0.16314896941185|-0.5346094369888306|-0.3402567803859711|0.01239609718322754|-0.01069347560405731|0.04684489965438843|XArbitraryZVertical|0.03603657905472205|0.1737460451470872|0.175617233027673|0.9683347949041035|0.3238313794136047|-0.1308165490627289|-0.9370273351669312|0|0|0|-1|-1|634684941.6463478|0|0.1300049|100.0111|3
2021-02-10 21:22:22.789 +0000|26542.55696479167|0.3319549560546875|-0.170654296875|-0.886993408203125|26542.53700079167|0.3294189945314612|0.3235265956835504|0.1330887912810377|0.1734349727630615|-0.5101754069328308|-0.3236250579357147|0.01844111084938049|-0.0392550528049469|0.0503772497177124|XArbitraryZVertical|0.03838932115559923|0.1692879306063101|0.1720316968276648|0.9696767868750606|0.3151007890701294|-0.1326962411403656|-0.9397357106208801|0|0|0|-1|-1|634684941.6463478|0|0.1300049|100.0111|3
2021-02-10 21:22:22.810 +0000|26542.57692879167|0.3260650634765625|-0.1815185546875|-0.880645751953125|26542.55696479167|0.3223772772611955|0.3144973412244438|0.1356187878723483|0.1709709614515305|-0.5234804153442383|-0.3094842135906219|0.02968356013298035|-0.03413860499858856|0.05023723840713501|XArbitraryZVertical|0.04097850956304428|0.1649565075775529|0.168620448989111|0.9709157682056083|0.306498110294342|-0.1352034360170364|-0.9422202110290527|0|0|0|-1|-1|634684941.6463478|0|0.1300049|100.0111|3
2021-02-10 21:22:22.830 +0000|26542.59689279167|0.3018798828125|-0.204498291015625|-0.8607330322265625|26542.57692879167|0.3157038361908814|0.3061350895869279|0.138003555158056|0.113451175391674|-0.5035818219184875|-0.2818737328052521|0.0251133143901825|-0.03661316633224487|0.05938464403152466|XArbitraryZVertical|0.04338282540201208|0.1609281185687738|0.1653712209957442|0.9720455795875853|0.2985104024410248|-0.1375659257173538|-0.9444401264190674|0|0|0|-1|-1|634684941.6463478|0|0.1300049|100.0111|3
2021-02-10 21:22:22.849 +0000|26542.61685779167|0.2882232666015625|-0.1772918701171875|-0.8579559326171875|26542.59689279167|0.3100931100899354|0.2982602879421797|0.1382048729682505|-0.01297195814549923|-0.4650387167930603|-0.2490578889846802|0.01735490560531616|-0.0627809464931488|0.08327072858810425|XArbitraryZVertical|0.04457243946864474|0.1569897326233841|0.1624834783290399|0.9731220980538313|0.2910557985305786|-0.1377653330564499|-0.9467350244522095|0|0|0|-1|-1|634684941.6463478|0|0.1300049|100.0111|3
2021-02-10 21:22:22.869 +0000|26542.63682179167|0.2653350830078125|-0.1385498046875|-0.8377532958984375|26542.61685779167|0.3061444740414497|0.2912837136197488|0.1361651049759443|-0.1526259630918503|-0.4076650440692902|-0.1950200498104095|0.004828602075576782|-0.05459342896938324|0.08965003490447998|XArbitraryZVertical|0.04444562273483337|0.1533613677429049|0.16026898191383|0.9740732336807802|0.2845239043235779|-0.135744720697403|-0.9490097761154175|0|0|0|-1|-1|634684941.6463478|0|0.1300049|100.0111|3
2021-02-10 21:22:22.889 +0000|26542.65678579167|0.2181854248046875|-0.1390838623046875|-0.83050537109375|26542.63682179167|0.3046616369837022|0.2843865454457182|0.1323109714107606|-0.3255214691162109|-0.3746617436408997|-0.09640524536371231|-0.001932322978973389|-0.01695473492145538|0.1042157411575317|XArbitraryZVertical|0.04322519829629379|0.1496971765010023|0.1591422200135436|0.9748825561574043|0.2781164348125458|-0.1319252699613571|-0.951444685459137|0|0|0|-1|-1|634684941.6463478|0|0.1300049|100.0111|3
2021-02-10 21:22:22.910 +0000|26542.67674979167|0.21051025390625|-0.1208343505859375|-0.8343505859375|26542.65678579167|0.3055722466204118|0.2779109861498364|0.1250199299471172|-0.4660467803478241|-0.2995367646217346|-0.008372324518859386|-0.03972321748733521|-0.01205476373434067|0.1237267851829529|XArbitraryZVertical|0.04010763233954578|0.1460435757388233|0.1589827909495296|0.9755958242881343|0.2722061574459076|-0.1246945112943649|-0.9541252851486206|0|0|0|-1|-1|634684941.6463478|0|0.1300049|100.0111|3
2021-02-10 21:22:22.929 +0000|26542.69671379167|0.190185546875|-0.1298675537109375|-0.80877685546875|26542.67674979167|0.3087459479360892|0.2723438182744552|0.1158560276695076|-0.4871063828468323|-0.2378344833850861|0.05658457055687904|-0.06226074695587158|-0.005130529403686523|0.1233276128768921|XArbitraryZVertical|0.03583935505260368|0.142731778111502|0.1598476054163069|0.9761106703947406|0.2671863436698914|-0.1155970171093941|-0.9566863775253296|0|0|0|-1|-1|634684941.6463478|0|0.1300049|100.0111|3
2021-02-10 21:22:22.949 +0000|26542.71667779167|0.189544677734375|-0.11322021484375|-0.821807861328125|26542.69671379167|0.3125396099503669|0.2674766990517711|0.1068523285992621|-0.4783123135566711|-0.1801090240478516|0.01111633330583572|-0.06792128086090088|-0.02208930253982544|0.1442583799362183|XArbitraryZVertical|0.0315563021431396|0.1397640877698373|0.1610583949324854|0.9764888708729829|0.2627913355827332|-0.1066491156816483|-0.9589403867721558|0|0|0|-1|-1|634684941.6463478|0|0.1300049|100.0111|3
2021-02-10 21:22:22.969 +0000|26542.73664179167|0.212799072265625|-0.092803955078125|-0.87158203125|26542.71667779167|0.3150984433628398|0.2642484579859314|0.09704493035552968|-0.5411068797111511|-0.1111788004636765|-0.04633719474077225|-0.07286688685417175|-0.02035586535930634|0.142876148223877|XArbitraryZVertical|0.02683972272438465|0.137499158986386|0.1616584242126589|0.9768521869789601|0.259954959154129|-0.09689267724752426|-0.960747241973877|0|0|0|-1|-1|634684941.6463478|0|0.1300049|100.0111|3
2021-02-10 21:22:22.989 +0000|26542.75660679167|0.232147216796875|-0.0728302001953125|-0.923065185546875|26542.73664179167|0.3162286565235494|0.2627959106647291|0.08605343971972464|-0.5476981401443481|-0.03224936500191689|-0.13628751039505|-0.05189573764801025|-0.02445007860660553|0.1047028303146362|XArbitraryZVertical|0.02149986709283279|0.1359804253565934|0.1615198694642048|0.9772197817025738|0.2588202059268951|-0.08594727516174316|-0.9620941877365112|0|0|0|-1|-1|634684941.6463478|0|0.1300049|100.0111|3
2021-02-10 21:22:23.009 +0000|26542.77657079167|0.207244873046875|-0.1188812255859375|-0.7791595458984375|26542.75660679167|0.3157017605283927|0.2624068883332626|0.07519354327217244|-0.4340788424015045|-0.02399622835218906|-0.1918204575777054|-0.02709010243415833|3.680586814880371e-06|0.05567556619644165|XArbitraryZVertical|0.01625053229672452|0.1349673944465266|0.1605913438016756|0.9776145786381415|0.2586728036403656|-0.07512270659208298|-0.9630394577980042|0|0|0|-1|-1|634684941.6463478|0|0.1300049|100.0111|3
2021-02-10 21:22:23.029 +0000|26542.79653479167|0.311309814453125|-0.15289306640625|-0.9471282958984375|26542.77657079167|0.3148257249839265|0.2633316000985934|0.06548098254122783|-0.6903343796730042|0.3463477492332458|-0.6201615929603577|-0.03772547841072083|0.04701682925224304|0.09801089763641357|XArbitraryZVertical|0.01148030169404834|0.1346801932855807|0.1595678846990582|0.9778894151773386|0.2597408890724182|-0.06543419510126114|-0.9634588956832886|0|0|0|-1|-1|634684941.6463478|0|0.1300049|100.0111|3
2021-02-10 21:22:23.065 +0000|26542.81649879167|0.1705780029296875|0.006317138671875|-1.038604736328125|26542.79653479167|0.3065833014851175|0.2682912077150657|0.04771411328857676|-0.7860981822013855|0.1223341971635818|-0.4510649740695953|0.1558108627796173|-0.2871428728103638|-0.00945204496383667|XArbitraryZVertical|0.00294749658044947|0.1357474343558633|0.1544301659868629|0.978629310669157|0.2647824585437775|-0.04769600927829742|-0.9631279110908508|0|0|0|-1|-1|634684941.6463478|0|0.1300049|100.0111|3
2021-02-10 21:22:23.077 +0000|26542.83646279167|0.4129486083984375|-0.033203125|-1.098358154296875|26542.81649879167|0.3098316774263311|0.2701205234237684|0.03578995618637655|-0.4343321621417999|0.09209127724170685|0.3977569043636322|-0.1098926067352295|0.02160689234733582|-0.04368382692337036|XArbitraryZVertical|-0.003254031120053636|0.1357520685056681|0.1552478884434872|0.9784983222678166|0.2666766941547394|-0.03578231483697891|-0.9631215929985046|0|0|0|-1|-1|634684941.6463478|0|0.1300049|100.0111|3
2021-02-10 21:22:23.089 +0000|26542.85642779167|0.32452392578125|-0.00457763671875|-1.03900146484375|26542.83646279167|0.3189296230877225|0.2726283524919649|0.03054483507732772|-0.3271244466304779|0.09543476998806|0.2543146014213562|0.102016806602478|-0.00243416428565979|-0.1193376779556274|XArbitraryZVertical|-0.006637624319834833|0.1365551298655737|0.1593474761971133|0.9777101220868193|0.2691380381584167|-0.03054008632898331|-0.9626172780990601|0|0|0|-1|-1|634684941.6463478|0|0.1300049|100.0111|3
2021-02-10 21:22:23.109 +0000|26542.87639179167|0.2945404052734375|-0.080291748046875|-1.007614135742188|26542.85642779167|0.3231048770213323|0.2726780203866335|0.02601517440789397|-0.2739116549491882|-0.008602998219430447|0.06348145008087158|0.09561735391616821|0.03631191700696945|-0.09437114000320435|XArbitraryZVertical|-0.009141769630381507|0.1362086650827274|0.1610893674609551|0.9774527297453655|0.2692203521728516|-0.0260122399777174|-0.9627272486686707|0|0|0|-1|-1|634684941.6463478|0|0.1300049|100.0111|3
2021-02-10 21:22:23.129 +0000|26542.89635579167|0.3005523681640625|-0.0258331298828125|-1.0096435546875|26542.87639179167|0.325796102830772|0.2733766168542721|0.02617956154478052|-0.4074591100215912|-0.005281237885355949|0.01951230317354202|0.0151883065700531|-0.0454481914639473|-0.04839044809341431|XArbitraryZVertical|-0.009301406821623472|0.1365506394228187|0.1624121059880549|0.9771845803521263|0.2698916792869568|-0.0261765718460083|-0.9625347852706909|0|0|0|-1|-1|634684941.6463478|0|0.1300049|100.0111|3
2021-02-10 21:22:23.149 +0000|26542.91631979167|0.308929443359375|0.0114898681640625|-1.028167724609375|26542.89635579167|0.3284157622101034|0.271200893613358|0.01734696323868058|-0.497632622718811|-0.04369168728590012|-0.002330588642507792|0.03546595573425293|-0.0260346531867981|-0.04644542932510376|XArbitraryZVertical|-0.01361987750750246|0.1347665927984014|0.1631209606075721|0.9772635210367269|0.2678483128547668|-0.01734609343111515|-0.9633049368858337|0|0|0|-1|-1|634684941.6463478|0|0.1300049|100.0111|3
2021-02-10 21:22:23.169 +0000|26542.93628379167|0.28961181640625|0.0276641845703125|-1.03466796875|26542.91631979167|0.331166280696191|0.2694888112830495|0.008086777278756662|-0.4493952393531799|-0.125771164894104|0.02167381346225739|0.04016649723052979|0.01118421647697687|-0.06058418750762939|XArbitraryZVertical|-0.01819033735899372|0.1331589700481788|0.1638678928614035|0.9772845284420251|0.2662300169467926|-0.008086688816547394|-0.9638755917549133|0|0|0|-1|-1|634684941.6463478|0|0.1300049|100.0111|3
2021-02-10 21:22:23.189 +0000|26542.95624779167|0.2672882080078125|0.02294921875|-1.023193359375|26542.93628379167|0.3341127684726104|0.2663683066901455|0.0006535630507635248|-0.3383914232254028|-0.1789474636316299|0.07109968364238739|0.03660574555397034|0.02981309965252876|-0.0713234543800354|XArbitraryZVertical|-0.02176112158338017|0.1309959586249906|0.1648506417846423|0.9773387031966876|0.2632295191287994|-0.0006535630091093481|-0.9647330045700073|0|0|0|-1|-1|634684941.6463478|0|0.1300049|100.0111|3
2021-02-10 21:22:23.209 +0000|26542.97621279167|0.2489776611328125|0.006622314453125|-0.9990081787109375|26542.95624779167|0.3374192892582792|0.2627759396358556|-0.004535994713883802|-0.2607422471046448|-0.1824229955673218|0.1149345189332962|0.01099246740341187|0.0216480940580368|-0.06235241889953613|XArbitraryZVertical|-0.02421446261581245|0.1287723538354549|0.1661698945954507|0.9773530149583609|0.2597595155239105|0.004535979125648737|-0.9656626582145691|0|0|0|-1|-1|634684941.6463478|0|0.1300049|100.0111|3
2021-02-10 21:22:23.229 +0000|26542.99617754167|0.23382568359375|0.0065155029296875|-1.004348754882812|26542.97621279167|0.3412057118148265|0.2592662490678668|-0.008862862249549856|-0.266627162694931|-0.1667616367340088|0.1379313617944717|-0.003401070833206177|-0.002438802272081375|-0.03938001394271851|XArbitraryZVertical|-0.02627729483742017|0.1266464001238498|0.1677857735486528|0.9773014110000202|0.256361335515976|0.008862745948135853|-0.9665403962135315|0|0|0|-1|-1|634684941.6463478|0|0.1300049|100.0111|3
2021-02-10 21:22:23.249 +0000|26543.01614154167|0.1666259765625|0.07928466796875|-0.93963623046875|26542.99617754167|0.3452834247573642|0.2556872713074847|-0.01261197893243243|-0.03319389000535011|-0.2860068380832672|0.2058973610401154|-0.007910370826721191|0.006080362945795059|-0.02747553586959839|XArbitraryZVertical|-0.02806296020178631|0.1245234363877154|0.1695880358866281|0.977213633034704|0.2528902888298035|0.01261164434254169|-0.9674127697944641|0|0|0|-1|-1|634684941.6463478|0|0.1300049|100.0111|3
2021-02-10 21:22:23.268 +0000|26543.03610554167|0.423126220703125|0.1702880859375|-1.017257690429688|26543.01614154167|0.3519981696662306|0.2527507200068008|-0.01234424512683642|-0.1569368243217468|-0.04433809220790863|0.3605301678180695|-0.09463837742805481|0.03308147564530373|0.04930073022842407|XArbitraryZVertical|-0.02809630675691361|0.1230177785650854|0.1729263521039443|0.9768181185348117|0.2500491738319397|0.01234393194317818|-0.9681544303894043|0|0|0|-1|-1|634684941.6463478|0|0.1300049|100.0111|3
