loggingTime(txt)|accelerometerTimestamp_sinceReboot(s)|accelerometerAccelerationX(G)|accelerometerAccelerationY(G)|accelerometerAccelerationZ(G)|motionTimestamp_sinceReboot(s)|motionYaw(rad)|motionRoll(rad)|motionPitch(rad)|motionRotationRateX(rad/s)|motionRotationRateY(rad/s)|motionRotationRateZ(rad/s)|motionUserAccelerationX(G)|motionUserAccelerationY(G)|motionUserAccelerationZ(G)|motionAttitudeReferenceFrame(txt)|motionQuaternionX(R)|motionQuaternionY(R)|motionQuaternionZ(R)|motionQuaternionW(R)|motionGravityX(G)|motionGravityY(G)|motionGravityZ(G)|motionMagneticFieldX(µT)|motionMagneticFieldY(µT)|motionMagneticFieldZ(µT)|motionHeading(°)|motionMagneticFieldCalibrationAccuracy(Z)|label
2021-02-10 19:46:47.749 +0000|24922.487596125|-0.226043701171875|0.0468902587890625|-0.9155120849609375|24922.467634125|-0.7692857739813678|-0.3078988242138588|-0.09094498687342865|0.1345652192831039|-0.4987074136734009|0.235626146197319|0.09271341562271118|-0.03240896016359329|0.1004776358604431|XArbitraryZVertical|-0.09911584844815945|-0.1251358226867149|-0.3639459767325378|0.9176384627602852|-0.3018045127391815|0.09081967175006866|-0.9490341544151306|0|0|0|-1|-1|3
2021-02-10 19:46:47.769 +0000|24922.507558125|-0.2312774658203125|0.0938873291015625|-0.8765716552734375|24922.507558125|-0.7628578633307647|-0.3329965737054649|-0.1031340584755945|-0.471116691827774|-0.7798994779586792|0.2139234989881516|0.09552538394927979|-0.06004355102777481|0.03168964385986328|XArbitraryZVertical|-0.1087888547842919|-0.1346933676402967|-0.3586828564761337|0.9172618214642446|-0.3251395523548126|0.1029513254761696|-0.9400453567504883|0|0|0|-1|-1|3
2021-02-10 19:46:47.789 +0000|24922.527521125|-0.252655029296875|0.2371673583984375|-0.783111572265625|24922.507558125|-0.7628578633307647|-0.3329965737054649|-0.1031340584755945|-0.471116691827774|-0.7798994779586792|0.2139234989881516|0.09552538394927979|-0.06004355102777481|0.03168964385986328|XArbitraryZVertical|-0.1087888547842919|-0.1346933676402967|-0.3586828564761337|0.9172618214642446|-0.3251395523548126|0.1029513254761696|-0.9400453567504883|0|0|0|-1|-1|3
2021-02-10 19:46:47.809 +0000|24922.547483125|-0.2732696533203125|0.1466217041015625|-0.7909698486328125|24922.527521125|-0.7609263444304015|-0.3484595099603423|-0.1113140433394129|-0.1674004644155502|-0.7697358727455139|0.2267375737428665|0.1036346554756165|0.08615086227655411|0.1351172924041748|XArbitraryZVertical|-0.1151422924046181|-0.1403597724862989|-0.3562085482265611|0.9166006870248212|-0.3393370509147644|0.1110843047499657|-0.9340827465057373|0|0|0|-1|-1|3
2021-02-10 19:46:47.829 +0000|24922.567445125|-0.29010009765625|0.1497039794921875|-0.826324462890625|24922.547483125|-0.7563313582742883|-0.3626701821332332|-0.1128363574874756|0.1152248755097389|-0.705258846282959|0.2642917037010193|0.09526807069778442|0.09596012532711029|0.1487948298454285|XArbitraryZVertical|-0.118024452432575|-0.1468557547348823|-0.3531341107889284|0.9164059589587873|-0.3525159060955048|0.1125970706343651|-0.9290072321891785|0|0|0|-1|-1|3
2021-02-10 19:46:47.848 +0000|24922.587407125|-0.3769378662109375|0.133941650390625|-0.8315582275390625|24922.567445125|-0.7496695160284048|-0.3767782284099039|-0.1127463517980773|0.1265669763088226|-0.8011022210121155|0.323376327753067|0.0809684693813324|0.02176976948976517|0.1301888227462769|XArbitraryZVertical|-0.1199602620515294|-0.1537335643135503|-0.3492506297705616|0.9165148569636278|-0.3655905723571777|0.1125076338648796|-0.9239510297775269|0|0|0|-1|-1|3
2021-02-10 19:46:47.868 +0000|24922.607370125|-0.308746337890625|0.199920654296875|-0.869415283203125|24922.587407125|-0.7429587641335648|-0.3924223424426359|-0.1128957766944488|0.1319331377744675|-0.81512850522995|0.3075226843357086|0.05717837810516357|0.04119831323623657|0.07259857654571533|XArbitraryZVertical|-0.1222157313649113|-0.1612812555844825|-0.3452134879667245|0.9164492922089968|-0.3799932301044464|0.1126561090350151|-0.9181033372879028|0|0|0|-1|-1|3
2021-02-10 19:46:47.888 +0000|24922.627332125|-0.3677215576171875|0.164276123046875|-0.9256439208984375|24922.607370125|-0.7359563712982731|-0.4087943970458366|-0.112112925973659|0.2490789294242859|-0.9223731160163879|0.2736101746559143|0.0427892804145813|0.0472710132598877|0.04753637313842773|XArbitraryZVertical|-0.124090394058585|-0.1693564181501136|-0.3410771938565219|0.9162894329336136|-0.3950077891349792|0.1118782088160515|-0.9118399620056152|0|0|0|-1|-1|3
2021-02-10 19:46:47.908 +0000|24922.647294125|-0.4732513427734375|0.2028961181640625|-1.039306640625|24922.627332125|-0.7290860135876982|-0.4278057728540635|-0.1075716137494098|0.4114269316196442|-1.040693163871765|0.2196309268474579|0.08632069826126099|0.07551237940788269|0.01004189252853394|XArbitraryZVertical|-0.1246539781320374|-0.1793095591295696|-0.3372313830358848|0.9157425011934878|-0.4124772250652313|0.1073642671108246|-0.9046189188957214|0|0|0|-1|-1|3
2021-02-10 19:46:47.928 +0000|24922.667256125|-0.599517822265625|0.2635955810546875|-1.14044189453125|24922.647294125|-0.7212598726802096|-0.4480243260905931|-0.1014698824306261|0.458974152803421|-1.061090469360352|0.2153889536857605|0.01202759146690369|0.06919066607952118|-0.07551455497741699|XArbitraryZVertical|-0.1245508768052301|-0.1901387095551546|-0.3330634389518137|0.9150973410425891|-0.430957555770874|0.1012958437204361|-0.8966686725616455|0|0|0|-1|-1|3
2021-02-10 19:46:47.948 +0000|24922.687219125|-0.6888580322265625|0.2621612548828125|-1.1708984375|24922.667256125|-0.7133779793334885|-0.4665716342904756|-0.09490529076896848|0.548127293586731|-0.9531537890434265|0.1590520888566971|-0.0894743800163269|0.1444339454174042|-0.2010523676872253|XArbitraryZVertical|-0.1238746917424458|-0.2002667603635636|-0.3290571724896066|0.9144778108556298|-0.447802722454071|0.09476288408041|-0.8890965580940247|0|0|0|-1|-1|3
2021-02-10 19:46:47.968 +0000|24922.707181125|-0.7133636474609375|0.2426300048828125|-1.153732299804688|24922.687219125|-0.7054489902615184|-0.483145653705069|-0.08622314254744258|0.5685476064682007|-0.7648932933807373|0.1577434241771698|-0.1956516802310944|0.1787152588367462|-0.2814022898674011|XArbitraryZVertical|-0.1218371291957134|-0.2098370756222523|-0.3254375316097119|0.9139006595443407|-0.4628412425518036|0.08611634373664856|-0.8822482228279114|0|0|0|-1|-1|3
2021-02-10 19:46:47.988 +0000|24922.727143125|-0.706512451171875|0.194366455078125|-1.097763061523438|24922.707181125|-0.6976614165857155|-0.4965539151890889|-0.0778307348997907|0.5347099304199219|-0.6376489400863647|0.1244326829910278|-0.2256967127323151|0.1755132526159286|-0.2964974045753479|XArbitraryZVertical|-0.1193694223029573|-0.2178693228547898|-0.322083220819864|0.9135349854353342|-0.4749562740325928|0.07775218039751053|-0.8765677809715271|0|0|0|-1|-1|3
2021-02-10 19:46:48.008 +0000|24922.747105125|-0.6911468505859375|0.173797607421875|-0.9982147216796875|24922.727143125|-0.690338775469617|-0.5074442927943796|-0.07092756547695733|0.4028945565223694|-0.5204958915710449|0.1755320876836777|-0.2351098954677582|0.1475157141685486|-0.2491646409034729|XArbitraryZVertical|-0.1171738106165971|-0.2244424186111712|-0.3189427118730598|0.9133297669574576|-0.4847233593463898|0.0708681121468544|-0.8717917799949646|0|0|0|-1|-1|3
2021-02-10 19:46:48.028 +0000|24922.767068125|-0.6633453369140625|0.166717529296875|-0.9281768798828125|24922.747105125|-0.6842019266591167|-0.5160548556352982|-0.06680611629949702|0.2684696316719055|-0.373918890953064|0.1648317724466324|-0.1970859169960022|0.1158608198165894|-0.1881825923919678|XArbitraryZVertical|-0.1159746842733853|-0.2294202109883365|-0.3161523801591293|0.9132162203457861|-0.4923518598079681|0.06675643473863602|-0.8678324818611145|0|0|0|-1|-1|3
2021-02-10 19:46:48.048 +0000|24922.787030125|-0.63262939453125|0.148773193359375|-0.8929595947265625|24922.767068125|-0.6789093831552369|-0.5215788834426474|-0.0649320619336624|0.1733132749795914|-0.222082257270813|0.1935152560472488|-0.1913987994194031|0.1099335476756096|-0.08791857957839966|XArbitraryZVertical|-0.1153827057409627|-0.2325588424819135|-0.3136524422392364|0.9133593312415049|-0.4971997141838074|0.06488644331693649|-0.8652064204216003|0|0|0|-1|-1|3
2021-02-10 19:46:48.068 +0000|24922.806992125|-0.6223297119140625|0.1376495361328125|-0.8720703125|24922.787030125|-0.6737838729187435|-0.5246705748027475|-0.06402344300956676|0.1634255200624466|-0.1257767677307129|0.203974649310112|-0.1435919404029846|0.09236187487840652|-0.0462268590927124|XArbitraryZVertical|-0.1148548171057419|-0.2344151992729187|-0.311248706210972|0.9137734643899155|-0.4999015927314758|0.06397971510887146|-0.8637157678604126|0|0|0|-1|-1|3
2021-02-10 19:46:48.088 +0000|24922.826954125|-0.620880126953125|0.06402587890625|-0.8502044677734375|24922.806992125|-0.6683776493886495|-0.5259107347091397|-0.06327972346871452|0.1733553260564804|-0.0377608984708786|0.2277232110500336|-0.1270097494125366|0.08108018338680267|-0.01137566566467285|XArbitraryZVertical|-0.1140741600777596|-0.2354125190324062|-0.308801667421543|0.9144448511383713|-0.5009961128234863|0.0632375031709671|-0.8631360530853271|0|0|0|-1|-1|3
2021-02-10 19:46:48.108 +0000|24922.846916125|-0.606536865234375|0.0811614990234375|-0.862945556640625|24922.826954125|-0.6624207274425148|-0.5251815315156519|-0.06276900946521491|0.1567825078964233|0.07559175789356232|0.2669197022914886|-0.1159197092056274|0.04783743619918823|0.004215002059936523|XArbitraryZVertical|-0.1130284635451038|-0.2354996013690376|-0.3061831460862675|0.9154323212673542|-0.5003827214241028|0.06272780150175095|-0.8635290265083313|0|0|0|-1|-1|3
2021-02-10 19:46:48.128 +0000|24922.866879125|-0.5961151123046875|0.0250244140625|-0.858367919921875|24922.846916125|-0.6562099909148084|-0.5224115753510516|-0.06295887520324898|0.1653669625520706|0.1659727990627289|0.2706628441810608|-0.1147489249706268|0.01128625869750977|0.009463131427764893|XArbitraryZVertical|-0.1119629112113095|-0.2345498013183484|-0.3034700321834748|0.9167096487278213|-0.497982919216156|0.06291729211807251|-0.8649014234542847|0|0|0|-1|-1|3
2021-02-10 19:46:48.148 +0000|24922.886841125|-0.566925048828125|0.035369873046875|-0.8734893798828125|24922.866879125|-0.6498876598561428|-0.5174057945524346|-0.06273555786090901|0.1487359553575516|0.2899361550807953|0.2671582400798798|-0.1161785423755646|-0.01646022498607635|0.0002843141555786133|XArbitraryZVertical|-0.1103662964131056|-0.2326403068949738|-0.3008762169993337|0.918243574132634|-0.4936541318893433|0.06269441545009613|-0.8673955202102661|0|0|0|-1|-1|3
2021-02-10 19:46:48.168 +0000|24922.906803125|-0.5488128662109375|0.023681640625|-0.8874969482421875|24922.886841125|-0.6441316315365107|-0.5104810304544705|-0.06273589385177024|0.1350136548280716|0.3613812327384949|0.2252248078584671|-0.08896321058273315|-0.03815856575965881|0.00838160514831543|XArbitraryZVertical|-0.1086631904845579|-0.2297732340697701|-0.2986102273583061|0.9199068415684332|-0.4876358211040497|0.06269475072622299|-0.8707931637763977|0|0|0|-1|-1|3
2021-02-10 19:46:48.188 +0000|24922.926765125|-0.5271453857421875|0.0246734619140625|-0.89410400390625|24922.906803125|-0.6391130288003767|-0.5023354264520334|-0.06257416290800304|0.1153952479362488|0.4176218509674072|0.2075628191232681|-0.07833689451217651|-0.02768221497535706|-5.650520324707031e-05|XArbitraryZVertical|-0.106804501555404|-0.2263188468922106|-0.2967585794022154|0.9215784536268128|-0.4805314540863037|0.06253333389759064|-0.8747451305389404|0|0|0|-1|-1|3
2021-02-10 19:46:48.208 +0000|24922.946728125|-0.5173187255859375|0.01898193359375|-0.882415771484375|24922.926765125|-0.6347428403880059|-0.493724351549636|-0.0628862174793899|0.0643325001001358|0.4163448214530945|0.1919219791889191|-0.06332859396934509|-0.02834460139274597|-0.01098299026489258|XArbitraryZVertical|-0.1051830093158984|-0.22253059920921|-0.2951614432617383|0.9231989248855675|-0.4729719460010529|0.06284477561712265|-0.8788333535194397|0|0|0|-1|-1|3
2021-02-10 19:46:48.228 +0000|24922.966690125|-0.514923095703125|0.0375518798828125|-0.8618316650390625|24922.946728125|-0.6315645545220452|-0.4875091982400318|-0.06381656162858493|0.02560214884579182|0.4315983355045319|0.1495335102081299|-0.05736801028251648|-0.04436402022838593|-0.005289554595947266|XArbitraryZVertical|-0.1043438354853656|-0.2196825253871529|-0.2939072125968032|0.9243756992238488|-0.467473179101944|0.0637732520699501|-0.8817039132118225|0|0|0|-1|-1|3
2021-02-10 19:46:48.248 +0000|24922.986652125|-0.4945068359375|0.0126953125|-0.8495635986328125|24922.966690125|-0.628874378582286|-0.4807200470551076|-0.06341291185539823|0.08008003979921341|0.4649982750415802|0.1249236837029457|-0.05740195512771606|-0.03216613829135895|0.01508331298828125|XArbitraryZVertical|-0.1028683225028331|-0.2167442548412344|-0.293062674476982|0.9255022268438657|-0.4614883065223694|0.06337042152881622|-0.8848800659179688|0|0|0|-1|-1|3
2021-02-10 19:46:48.268 +0000|24923.006614125|-0.479736328125|0.01544189453125|-0.858978271484375|24922.986652125|-0.6258436689795032|-0.4728310336202333|-0.06200684298847272|0.1252643316984177|0.4839070737361908|0.1143452525138855|-0.05752101540565491|-0.04368703067302704|0.03505599498748779|XArbitraryZVertical|-0.1007401312266713|-0.2134610224163116|-0.2922252591427265|0.9267633417323707|-0.4545333087444305|0.06196711584925652|-0.8885716199874878|0|0|0|-1|-1|3
2021-02-10 19:46:48.295 +0000|24923.02657675|-0.455535888671875|0.0069427490234375|-0.8494415283203125|24923.006614125|-0.6229343692710857|-0.4648575314855115|-0.05967604963741032|0.1656656265258789|0.4521665573120117|0.08220285177230835|-0.03316953778266907|-0.04027717933058739|0.03226310014724731|XArbitraryZVertical|-0.09819259894077136|-0.2102643508365735|-0.2915409085519115|0.9279821373283749|-0.4474974572658539|0.05964063480496407|-0.8922942280769348|0|0|0|-1|-1|3
2021-02-10 19:46:48.308 +0000|24923.04653875|-0.44549560546875|-0.0094757080078125|-0.8455352783203125|24923.02657675|-0.6202250423298977|-0.457449578670386|-0.05649545709650056|0.1660780012607574|0.4133349061012268|0.05315761640667915|-0.02623680233955383|-0.04029104113578796|0.04807889461517334|XArbitraryZVertical|-0.09536059605119615|-0.2074394781257952|-0.2910011290364571|0.9290821408879241|-0.440956711769104|0.05646540969610214|-0.8957504630088806|0|0|0|-1|-1|3
2021-02-10 19:46:48.328 +0000|24923.06650075|-0.42889404296875|0.002532958984375|-0.8461761474609375|24923.04653875|-0.6183439619242622|-0.4510406963356192|-0.05388642593221696|0.1046478003263474|0.3693603277206421|0.03803343325853348|-0.01933535933494568|-0.05845320224761963|0.05280131101608276|XArbitraryZVertical|-0.09302699229919489|-0.2049443532130196|-0.2907190799748805|0.9299602959806228|-0.4352696537971497|0.05386035144329071|-0.8986876010894775|0|0|0|-1|-1|3
2021-02-10 19:46:48.348 +0000|24923.08646275|-0.430938720703125|-7.62939453125e-05|-0.854217529296875|24923.08646275|-0.6170547600690344|-0.4420173619279751|-0.05084692783338229|0.005170093849301338|0.2349922806024551|-0.01358892489224672|-0.00645899772644043|-0.06020911782979965|0.05598157644271851|XArbitraryZVertical|-0.09017535716232331|-0.2012640942702973|-0.2908648134624807|0.9309988471129118|-0.4272109568119049|0.05082502216100693|-0.9027223587036133|0|0|0|-1|-1|3
2021-02-10 19:46:48.368 +0000|24923.10642575|-0.4542999267578125|0.040618896484375|-0.83160400390625|24923.08646275|-0.6170547600690344|-0.4420173619279751|-0.05084692783338229|0.005170093849301338|0.2349922806024551|-0.01358892489224672|-0.00645899772644043|-0.06020911782979965|0.05598157644271851|XArbitraryZVertical|-0.09017535716232331|-0.2012640942702973|-0.2908648134624807|0.9309988471129118|-0.4272109568119049|0.05082502216100693|-0.9027223587036133|0|0|0|-1|-1|3
2021-02-10 19:46:48.388 +0000|24923.12638775|-0.4260406494140625|0.0261383056640625|-0.823089599609375|24923.10642575|-0.6176462081463735|-0.4388645568453013|-0.04956808050061878|0.0263239499181509|0.2404818534851074|-0.04731226712465286|-0.01211810111999512|-0.01701600104570389|0.06176137924194336|XArbitraryZVertical|-0.08918250774481468|-0.1999626417771614|-0.2914193453077815|0.93120138362998|-0.4243899881839752|0.04954778403043747|-0.9041228294372559|0|0|0|-1|-1|3
2021-02-10 19:46:48.407 +0000|24923.14634975|-0.4298095703125|0.015899658203125|-0.82745361328125|24923.12638775|-0.6185338216338493|-0.4350005562178474|-0.04816751528425515|-0.04119076579809189|0.240461677312851|-0.06255034357309341|-0.03169918060302734|-0.02295657619833946|0.08268260955810547|XArbitraryZVertical|-0.08805722426903229|-0.198335405204276|-0.292153495751787|0.9314264506869694|-0.4209221303462982|0.04814889281988144|-0.905817985534668|0|0|0|-1|-1|3
2021-02-10 19:46:48.427 +0000|24923.16631175|-0.4132080078125|0.0052490234375|-0.8103485107421875|24923.14634975|-0.6206598305454909|-0.4314113318777479|-0.04805419605122729|-0.1304348409175873|0.2154345661401749|-0.07733719050884247|-0.004372209310531616|-0.0205240473151207|0.08063715696334839|XArbitraryZVertical|-0.08768917310193777|-0.1965875437434011|-0.2933133127200145|0.931467279785796|-0.4176705181598663|0.04803570359945297|-0.9073278903961182|0|0|0|-1|-1|3
2021-02-10 19:46:48.448 +0000|24923.18627475|-0.4067840576171875|-0.0364227294921875|-0.7836761474609375|24923.16631175|-0.6239273271348065|-0.4285796450129629|-0.05003145108550495|-0.2751617431640625|0.1623528152704239|-0.09459109604358673|-0.004648864269256592|-0.04163345694541931|0.08572590351104736|XArbitraryZVertical|-0.08851023458035517|-0.1948243787999067|-0.2947517217350131|0.931305989538279|-0.4150592982769012|0.05001058056950569|-0.9084187746047974|0|0|0|-1|-1|3
2021-02-10 19:46:48.467 +0000|24923.20623675|-0.41387939453125|-0.0238037109375|-0.7662506103515625|24923.18627475|-0.6288914995631412|-0.4269914772977235|-0.05481557817520152|-0.4449233412742615|0.1157597377896309|-0.135232001543045|0.004881978034973145|-0.06936021894216537|0.1092575788497925|XArbitraryZVertical|-0.09097587759318272|-0.1931296549031294|-0.2966322183118058|0.9308241455220724|-0.4135122299194336|0.05478813126683235|-0.9088486433029175|0|0|0|-1|-1|3
2021-02-10 19:46:48.488 +0000|24923.22619875|-0.4106597900390625|-0.012237548828125|-0.7214508056640625|24923.20623675|-0.6363040037511337|-0.4255418993164481|-0.06371881981714682|-0.6764373779296875|0.08864700794219971|-0.1638496220111847|0.005009591579437256|-0.0970466285943985|0.1298377513885498|XArbitraryZVertical|-0.09559584851204823|-0.1907302700277119|-0.2992136057877036|0.9300293770951089|-0.4119766652584076|0.06367570906877518|-0.9089667797088623|0|0|0|-1|-1|3
2021-02-10 19:46:48.507 +0000|24923.24616075|-0.3713226318359375|0.0281982421875|-0.6820068359375|24923.22619875|-0.6455706517770454|-0.4241017498428837|-0.07631627147867043|-0.847582221031189|0.113892175257206|-0.1559576094150543|-0.01425594091415405|-0.1002594903111458|0.168216347694397|XArbitraryZVertical|-0.1020812883238399|-0.1876205021248356|-0.3022641115210251|0.9289856400394177|-0.4103045165538788|0.07624221593141556|-0.908755898475647|0|0|0|-1|-1|3
2021-02-10 19:46:48.528 +0000|24923.26612375|-0.34466552734375|0.017608642578125|-0.6657562255859375|24923.24616075|-0.6560947636175501|-0.4232323976169091|-0.09130836837590503|-0.9458552002906799|0.05756935104727745|-0.1867564469575882|0.0258050262928009|-0.08223984390497208|0.2058042287826538|XArbitraryZVertical|-0.1098442642699031|-0.1842559392856394|-0.3056049216094518|0.9276797021457518|-0.4089988768100739|0.09118154644966125|-0.9079679846763611|0|0|0|-1|-1|3
2021-02-10 19:46:48.548 +0000|24923.28608575|-0.307220458984375|0.0396728515625|-0.6936187744140625|24923.26612375|-0.6678957742998122|-0.4240741989207198|-0.1078341592970844|-1.063393831253052|-0.02799108996987343|-0.2042457908391953|0.04951381683349609|-0.07712292671203613|0.235136091709137|XArbitraryZVertical|-0.1186542181404393|-0.1812680927117242|-0.3092540366658199|0.9259724462064652|-0.4090871214866638|0.1076252907514572|-0.906126081943512|0|0|0|-1|-1|3
2021-02-10 19:46:48.567 +0000|24923.30604775|-0.2776947021484375|0.102142333984375|-0.7235260009765625|24923.28608575|-0.6810921879480824|-0.4275314065530764|-0.1269847752290141|-1.224997758865356|-0.1811489462852478|-0.2111306637525558|0.07872200012207031|-0.1218524575233459|0.2268074750900269|XArbitraryZVertical|-0.1291575995368536|-0.1788457452142559|-0.3130546666457479|0.9237581335930855|-0.4112871885299683|0.1266437768936157|-0.9026650190353394|0|0|0|-1|-1|3
2021-02-10 19:46:48.587 +0000|24923.32600975|-0.2829132080078125|0.1302642822265625|-0.756195068359375|24923.30604775|-0.6960955989909415|-0.4353144940201046|-0.1479768035339566|-1.304421901702881|-0.3891715109348297|-0.2700888812541962|0.1294589638710022|-0.06783221662044525|0.1917805075645447|XArbitraryZVertical|-0.1412977840523607|-0.1778226465542017|-0.3170996159811104|0.92079411384208|-0.41708704829216|0.1474373489618301|-0.8968281149864197|0|0|0|-1|-1|3
2021-02-10 19:46:48.607 +0000|24923.34597175|-0.353179931640625|0.15399169921875|-0.7738037109375|24923.32600975|-0.7133314560277114|-0.4477355907255876|-0.1690969321967875|-1.324690341949463|-0.5773806571960449|-0.3622469305992126|0.1535879373550415|-0.05026544630527496|0.1527329087257385|XArbitraryZVertical|-0.1543941611794713|-0.1785386624128137|-0.3216551982496438|0.9169647539617231|-0.4267506897449493|0.168292224407196|-0.8885727524757385|0|0|0|-1|-1|3
2021-02-10 19:46:48.627 +0000|24923.36593475|-0.3675079345703125|0.224334716796875|-0.7758331298828125|24923.34597175|-0.7321008617989356|-0.4636319505327466|-0.1892079989078192|-1.287425398826599|-0.6569110751152039|-0.3966630697250366|0.1250402927398682|-0.03798031806945801|0.1081011891365051|XArbitraryZVertical|-0.1677103006411263|-0.1806582782436524|-0.3265336588597808|0.9124755707464289|-0.4392186403274536|0.1880810856819153|-0.8784716725349426|0|0|0|-1|-1|3
2021-02-10 19:46:48.647 +0000|24923.38589675|-0.391815185546875|0.2181549072265625|-0.79339599609375|24923.36593475|-0.7506638342199347|-0.4815173232006395|-0.2070987419956036|-1.122543811798096|-0.7653911709785461|-0.4305455088615417|0.09240379929542542|-0.02416396141052246|0.09313887357711792|XArbitraryZVertical|-0.1803343258753445|-0.183853892006513|-0.3311708101038281|0.9077461808695528|-0.4532282650470734|0.2056215107440948|-0.8673545718193054|0|0|0|-1|-1|3
2021-02-10 19:46:48.667 +0000|24923.40585875|-0.3739776611328125|0.171630859375|-0.7746429443359375|24923.38589675|-0.7690012670271638|-0.5015156626576494|-0.2207685103626126|-0.9403764605522156|-0.8493803143501282|-0.4984949827194214|0.08851754665374756|0.01309143006801605|0.06777709722518921|XArbitraryZVertical|-0.1914324573418601|-0.1885922527612627|-0.33581439872029|0.9027819487711325|-0.4690869152545929|0.2189795523881912|-0.8555731773376465|0|0|0|-1|-1|3
2021-02-10 19:46:48.687 +0000|24923.42582075|-0.40435791015625|0.166290283203125|-0.762420654296875|24923.40585875|-0.7878857183416522|-0.5237581237391734|-0.2313992116282458|-0.9201640486717224|-0.9655014276504517|-0.5865194201469421|0.09604531526565552|-0.0373382568359375|0.06001299619674683|XArbitraryZVertical|-0.2016729078043284|-0.1946675009786248|-0.3406687493949373|0.8974282599967369|-0.4868075549602509|0.2293396592140198|-0.8428652286529541|0|0|0|-1|-1|3
2021-02-10 19:46:48.707 +0000|24923.44578375|-0.4205780029296875|0.201324462890625|-0.748931884765625|24923.42582075|-0.8091668787890174|-0.5493428356567641|-0.2412713580920256|-0.9873376488685608|-1.082342505455017|-0.6790574789047241|0.1240231990814209|-0.08111564815044403|0.05079019069671631|XArbitraryZVertical|-0.2124708107204003|-0.2019255139739943|-0.3461210240216452|0.8912252051114483|-0.5070034265518188|0.2389373481273651|-0.8281644582748413|0|0|0|-1|-1|3
2021-02-10 19:46:48.727 +0000|24923.46574575|-0.432098388671875|0.22833251953125|-0.713653564453125|24923.44578375|-0.8323587817170593|-0.5771029419430956|-0.250386603300614|-0.9692660570144653|-1.124374985694885|-0.7461780905723572|0.1171926856040955|-0.05956131219863892|0.05054593086242676|XArbitraryZVertical|-0.2236262074062621|-0.2098438570420751|-0.3520226282343819|0.8843285906282802|-0.5285848379135132|0.24777851998806|-0.8119137287139893|0|0|0|-1|-1|3
2021-02-10 19:46:48.747 +0000|24923.48570775|-0.445343017578125|0.2496337890625|-0.7211151123046875|24923.46574575|-0.8561331867501106|-0.6056504627705166|-0.2568908443325324|-0.8435656428337097|-1.131292462348938|-0.8008639812469482|0.1289387345314026|-0.0448155403137207|0.05676531791687012|XArbitraryZVertical|-0.2340064308188511|-0.218321530099012|-0.3582072949339518|0.8770771497303992|-0.5506152510643005|0.2540746629238129|-0.7951533794403076|0|0|0|-1|-1|3
2021-02-10 19:46:48.767 +0000|24923.50566975|-0.4809112548828125|0.23175048828125|-0.697021484375|24923.48570775|-0.8790576244012461|-0.6336202171293681|-0.2594490037619204|-0.6448135375976562|-1.087644457817078|-0.8636587262153625|0.1381838321685791|-0.007860243320465088|0.07547199726104736|XArbitraryZVertical|-0.2426888606760292|-0.2272518259149418|-0.364469388144465|0.8698394775268931|-0.5722505450248718|0.2565480470657349|-0.7789174318313599|0|0|0|-1|-1|3
2021-02-10 19:46:48.796 +0000|24923.52563275|-0.420501708984375|0.1695098876953125|-0.6535491943359375|24923.50566975|-0.9009062494310484|-0.6595965646153508|-0.2585801296461624|-0.575922966003418|-0.9366095066070557|-0.8560307025909424|0.1268642544746399|0.007017701864242554|0.04196709394454956|XArbitraryZVertical|-0.2496339940040089|-0.2360068989715891|-0.3708829666372133|0.8628032094052633|-0.5924249887466431|0.2557081580162048|-0.7639672160148621|0|0|0|-1|-1|3
2021-02-10 19:46:48.809 +0000|24923.54559475|-0.4045562744140625|0.192596435546875|-0.6514434814453125|24923.52563275|-0.9224556569377126|-0.6827630507271427|-0.2577539166659863|-0.6729660630226135|-0.8544424176216125|-0.83744215965271|0.1552926301956177|-0.05381369590759277|0.08188295364379883|XArbitraryZVertical|-0.2562110537617002|-0.2434225811789599|-0.3773565372210888|0.8559808622855807|-0.6100959777832031|0.2549093067646027|-0.7502027153968811|0|0|0|-1|-1|3
2021-02-10 19:46:48.827 +0000|24923.56555675|-0.521087646484375|0.2038726806640625|-0.6734466552734375|24923.54559475|-0.9456996386929648|-0.7062882286861608|-0.2575533892538829|-0.7322332262992859|-0.9275042414665222|-0.9255712032318115|0.2248669862747192|-0.08935582637786865|0.09282988309860229|XArbitraryZVertical|-0.2634790654640203|-0.2504744068658469|-0.3842416480319193|0.8486457960074981|-0.6276073455810547|0.2547154128551483|-0.7356827259063721|0|0|0|-1|-1|3
2021-02-10 19:46:48.847 +0000|24923.58551875|-0.628204345703125|0.2790679931640625|-0.666259765625|24923.56555675|-0.9711406648311808|-0.7315015118719722|-0.2554400172377393|-0.7340450286865234|-0.9414177536964417|-1.058189630508423|0.1982540488243103|-0.04850852489471436|0.05445235967636108|XArbitraryZVertical|-0.2707592067520136|-0.2582183319085552|-0.3920030961090752|0.8404440782491779|-0.6463130116462708|0.2526711821556091|-0.7200254797935486|0|0|0|-1|-1|3
2021-02-10 19:46:48.867 +0000|24923.60548175|-0.721923828125|0.3351898193359375|-0.6905670166015625|24923.58551875|-0.9973272217333599|-0.7560245029487549|-0.2504047072015826|-0.6005099415779114|-0.8763799667358398|-1.128837823867798|0.08127987384796143|-0.004326760768890381|0.04299724102020264|XArbitraryZVertical|-0.2770546495673128|-0.2660861154175106|-0.4005327288743163|0.8318728117089236|-0.6646385192871094|0.2477960586547852|-0.7048777937889099|0|0|0|-1|-1|3
2021-02-10 19:46:48.887 +0000|24923.62544375|-0.7264404296875|0.3598785400390625|-0.6541900634765625|24923.60548175|-1.022361098363877|-0.7781951450889127|-0.2421398846464255|-0.4897933006286621|-0.7305942177772522|-1.17465603351593|0.007016658782958984|0.07165125012397766|0.009108364582061768|XArbitraryZVertical|-0.2816859605601569|-0.2737707040472293|-0.4093671202584448|0.823481014741432|-0.6815158724784851|0.2397806346416473|-0.6914052367210388|0|0|0|-1|-1|3
2021-02-10 19:46:48.907 +0000|24923.64540575|-0.681854248046875|0.2571563720703125|-0.5774383544921875|24923.62544375|-1.045252301651469|-0.7969566704170399|-0.2316136640031373|-0.3466686904430389|-0.6327109932899475|-1.135017037391663|-0.04455828666687012|0.1320544630289078|-0.001446723937988281|XArbitraryZVertical|-0.2846633023041739|-0.2808106088293532|-0.4181185718592352|0.8156524816228788|-0.6961337924003601|0.2295483946800232|-0.6802244186401367|0|0|0|-1|-1|3
2021-02-10 19:46:48.927 +0000|24923.66536775|-0.657012939453125|0.2635345458984375|-0.62640380859375|24923.64540575|-1.065122579586031|-0.813957215770288|-0.2204519739351284|-0.3022829294204712|-0.6356645226478577|-1.017780423164368|0.0013619065284729|0.08279727399349213|0.04911422729492188|XArbitraryZVertical|-0.2867909500126024|-0.2876563216542121|-0.4259272270555528|0.8084494992262957|-0.7094153761863708|0.2186706811189651|-0.6700095534324646|0|0|0|-1|-1|3
2021-02-10 19:46:48.949 +0000|24923.68533075|-0.7778472900390625|0.2643280029296875|-0.6891632080078125|24923.66536775|-1.083698700062459|-0.8322099807030757|-0.2095620349949091|-0.2510831952095032|-0.7936413288116455|-1.050014138221741|0.07369273900985718|0.04761430621147156|0.06073582172393799|XArbitraryZVertical|-0.289273185704849|-0.2950660136174061|-0.4329083313683921|0.8011537720311617|-0.7232440710067749|0.2080315351486206|-0.658514142036438|0|0|0|-1|-1|3
2021-02-10 19:46:48.967 +0000|24923.70529275|-0.8451995849609375|0.2666168212890625|-0.704345703125|24923.70529275|-1.11905690367687|-0.8713287278167224|-0.1808401234520047|-0.1214594021439552|-0.7579190135002136|-1.130712509155273|-0.06946682929992676|0.08955320715904236|-0.0528150200843811|XArbitraryZVertical|-0.2924623923984001|-0.3127457052165739|-0.4469445690431154|0.7854275645776019|-0.7527071237564087|0.1798560619354248|-0.6333117485046387|0|0|0|-1|-1|3
2021-02-10 19:46:48.986 +0000|24923.72525475|-0.874298095703125|0.2369537353515625|-0.6977996826171875|24923.70529275|-1.11905690367687|-0.8713287278167224|-0.1808401234520047|-0.1214594021439552|-0.7579190135002136|-1.130712509155273|-0.06946682929992676|0.08955320715904236|-0.0528150200843811|XArbitraryZVertical|-0.2924623923984001|-0.3127457052165739|-0.4469445690431154|0.7854275645776019|-0.7527071237564087|0.1798560619354248|-0.6333117485046387|0|0|0|-1|-1|3
2021-02-10 19:46:49.006 +0000|24923.74521675|-0.852081298828125|0.2550811767578125|-0.64459228515625|24923.72525475|-1.135626471548321|-0.8886895425942574|-0.1654137657599945|-0.156754732131958|-0.7168426513671875|-1.082862138748169|-0.1030167937278748|0.1032381504774094|-0.08543550968170166|XArbitraryZVertical|-0.2932730456752574|-0.3210585863587206|-0.4539667708354507|0.7777058430401579|-0.7656506896018982|0.1646604686975479|-0.6218246221542358|0|0|0|-1|-1|3
2021-02-10 19:46:49.026 +0000|24923.76517975|-0.85693359375|0.2426300048828125|-0.67523193359375|24923.74521675|-1.150995821264271|-0.9054087752489284|-0.1504733089685019|-0.07438194006681442|-0.7346681952476501|-1.086790323257446|-0.1004159450531006|0.08950439095497131|-0.05861842632293701|XArbitraryZVertical|-0.2940882586827171|-0.3291171642814232|-0.4604625146162957|0.7701741410934457|-0.7777882814407349|0.149906113743782|-0.6103879809379578|0|0|0|-1|-1|3
2021-02-10 19:46:49.052 +0000|24923.78514175|-0.923553466796875|0.1826629638671875|-0.6826171875|24923.76517975|-1.163079771322673|-0.9237507500694184|-0.1334455855553723|0.1496576368808746|-0.8944514393806458|-1.061265230178833|-0.04310274124145508|0.1149360537528992|-0.05978488922119141|XArbitraryZVertical|-0.2941193725557308|-0.3387590501408487|-0.4658319392924464|0.7627165873973942|-0.7907747030258179|0.133049875497818|-0.5974721908569336|0|0|0|-1|-1|3
2021-02-10 19:46:49.068 +0000|24923.80510375|-0.9652252197265625|0.1822967529296875|-0.6953125|24923.78514175|-1.172380022681371|-0.9430692515675581|-0.1140125472386629|0.2327782362699509|-0.921274721622467|-1.033941984176636|-0.09257286787033081|0.09183129668235779|-0.09471380710601807|XArbitraryZVertical|-0.2931650726298452|-0.3497247849287157|-0.4704615213801547|0.75525676878728|-0.8041098117828369|0.1137657016515732|-0.5834936499595642|0|0|0|-1|-1|3
2021-02-10 19:46:49.086 +0000|24923.82506575|-0.9695587158203125|0.17535400390625|-0.6627197265625|24923.80510375|-1.180445508022183|-0.9626379267453531|-0.09435016700635226|0.2740348279476166|-0.9410742521286011|-1.031070709228516|-0.1372485160827637|0.09031438827514648|-0.1211714148521423|XArbitraryZVertical|-0.2920936197559471|-0.3609340940929952|-0.4746273197442575|0.7477544520780037|-0.8170513510704041|0.09421024471521378|-0.5688157677650452|0|0|0|-1|-1|3
2021-02-10 19:46:49.106 +0000|24923.84502875|-0.93878173828125|0.164947509765625|-0.6295013427734375|24923.82506575|-1.186244898738372|-0.9821276308916449|-0.07422021042682904|0.391217052936554|-0.9435573816299438|-0.9421944618225098|-0.1489261984825134|0.1040706634521484|-0.1395117044448853|XArbitraryZVertical|-0.290529921901432|-0.3724641358311243|-0.4780555106712883|0.7404902559336665|-0.8293910026550293|0.07415208965539932|-0.5537256598472595|0|0|0|-1|-1|3
2021-02-10 19:46:49.126 +0000|24923.86499075|-0.972991943359375|0.138397216796875|-0.6207427978515625|24923.84502875|-1.188574818381477|-1.001528249810193|-0.05396271347437154|0.5465488433837891|-0.9995065927505493|-0.894321084022522|-0.1086525321006775|0.1154513880610466|-0.1034010648727417|XArbitraryZVertical|-0.2883249078308814|-0.3843868231291441|-0.4802592434422752|0.7338026751266313|-0.8410695791244507|0.05393652617931366|-0.5382310152053833|0|0|0|-1|-1|3
2021-02-10 19:46:49.146 +0000|24923.88495275|-1.0076904296875|0.1074981689453125|-0.6033782958984375|24923.86499075|-1.187239100684211|-1.021450132508479|-0.03256309726915343|0.68080735206604|-0.9852311015129089|-0.848688006401062|-0.09971916675567627|0.1359455585479736|-0.1036354303359985|XArbitraryZVertical|-0.285160288753336|-0.397186533129378|-0.4813231864676715|0.7274987694495475|-0.8524139523506165|0.03255734220147133|-0.5218529105186462|0|0|0|-1|-1|3
2021-02-10 19:46:49.166 +0000|24923.90491475|-1.009765625|0.11376953125|-0.5654144287109375|24923.88495275|-1.18397713868466|-1.040617299489377|-0.0116830167869589|0.6493311524391174|-0.9318518042564392|-0.7712919116020203|-0.1239449977874756|0.0918634831905365|-0.1192094683647156|XArbitraryZVertical|-0.281615958266358|-0.409714326726792|-0.4817500154794275|0.7216255073072443|-0.8626576066017151|0.01168275065720081|-0.5056532621383667|0|0|0|-1|-1|3
2021-02-10 19:46:49.186 +0000|24923.92487775|-0.9739532470703125|0.0635833740234375|-0.5021820068359375|24923.90491475|-1.180371602929001|-1.058623206099704|0.006962948347121403|0.6142540574073792|-0.8783853650093079|-0.6795092821121216|-0.1494271159172058|0.1245166957378387|-0.0949765145778656|XArbitraryZVertical|-0.2785080827627005|-0.421192184514456|-0.4818166238097221|0.7161585699685444|-0.8716604113578796|-0.006962892133742571|-0.4900607764720917|0|0|0|-1|-1|3
2021-02-10 19:46:49.206 +0000|24923.94483975|-0.9540863037109375|0.0462493896484375|-0.46392822265625|24923.92487775|-1.175582868291233|-1.075777304864246|0.02365724417643074|0.5995187759399414|-0.8356644511222839|-0.5616064071655273|-0.1120010018348694|0.110447108745575|-0.05996620655059814|XArbitraryZVertical|-0.2756230689897095|-0.43194235898887|-0.4812309189142834|0.711248518777437|-0.8797134160995483|-0.02365503832697868|-0.4749154448509216|0|0|0|-1|-1|3
2021-02-10 19:46:49.226 +0000|24923.96480175|-0.972442626953125|0.0335540771484375|-0.4710235595703125|24923.94483975|-1.170006808140151|-1.092197922474305|0.03796815925041517|0.5541034936904907|-0.7959455251693726|-0.4470032155513763|-0.0741342306137085|0.09070876240730286|-0.01634371280670166|XArbitraryZVertical|-0.2732142664848448|-0.4418734762326591|-0.4800227627075343|0.7068803929641014|-0.8870015144348145|-0.03795903921127319|-0.4602035880088806|0|0|0|-1|-1|3
2021-02-10 19:46:49.246 +0000|24923.98476375|-1.030899047851562|0.04156494140625|-0.4814300537109375|24923.96480175|-1.164210781371928|-1.108085668719315|0.05010708080973473|0.492949515581131|-0.7611964344978333|-0.3790591359138489|-0.06095868349075317|0.08551713824272156|-0.01879981160163879|XArbitraryZVertical|-0.271371886885378|-0.4510540517914727|-0.4784012184713654|0.7028795509270329|-0.8937225937843323|-0.05008611455559731|-0.4458150863647461|0|0|0|-1|-1|3
2021-02-10 19:46:49.266 +0000|24924.00472675|-1.037368774414062|-0.008819580078125|-0.4699249267578125|24923.98476375|-1.159642691226907|-1.122840624606474|0.06015306334879016|0.3650044798851013|-0.6898853778839111|-0.3156100213527679|-0.1039273142814636|0.1000491380691528|-0.04619047045707703|XArbitraryZVertical|-0.2702550448141262|-0.4591208847808377|-0.4769592331893405|0.6990565094883018|-0.8997041583061218|-0.06011679396033287|-0.4323404431343079|0|0|0|-1|-1|3
2021-02-10 19:46:49.297 +0000|24924.02468941667|-1.031051635742188|-0.0395355224609375|-0.474212646484375|24924.00472675|-1.156139849906003|-1.135656992365276|0.06755263811178802|0.2533013522624969|-0.5698157548904419|-0.2093451917171478|-0.1358757615089417|0.09232739359140396|-0.05441561341285706|XArbitraryZVertical|-0.2698477960250175|-0.465719357359403|-0.4756089198158896|0.6957612670963766|-0.9047430157661438|-0.06750126928091049|-0.4205752909183502|0|0|0|-1|-1|3
2021-02-10 19:46:49.314 +0000|24924.04465141667|-1.012252807617188|-0.0260009765625|-0.4520721435546875|24924.02468941667|-1.154205387397127|-1.14598334860389|0.07185494792408834|0.1071813330054283|-0.4562545418739319|-0.1061355471611023|-0.1258726716041565|0.03306642919778824|-0.05921962857246399|XArbitraryZVertical|-0.2703097319564637|-0.4705201836698906|-0.4744808721169803|0.6931169669286952|-0.908764660358429|-0.07179313153028488|-0.4110867977142334|0|0|0|-1|-1|3
2021-02-10 19:46:49.326 +0000|24924.06461341667|-1.023330688476562|-0.0798797607421875|-0.4303131103515625|24924.04465141667|-1.153115036290868|-1.154226028547599|0.0741812062833774|0.1075265929102898|-0.3635001182556152|-0.07173193991184235|-0.1104175448417664|0.04528943449258804|-0.0678761899471283|XArbitraryZVertical|-0.2711755489574423|-0.4740327151942934|-0.4734982001244604|0.6910543484138436|-0.9119669795036316|-0.07411319017410278|-0.4035136103630066|0|0|0|-1|-1|3
2021-02-10 19:46:49.346 +0000|24924.08457641667|-1.016189575195312|-0.073394775390625|-0.4201507568359375|24924.06461341667|-1.151257197532619|-1.160451087650769|0.07559550532206261|0.0938105434179306|-0.2442794591188431|0.003667826997116208|-0.1010012626647949|0.02768731862306595|-0.03917941451072693|XArbitraryZVertical|-0.2717018877041573|-0.4767439516601576|-0.4723240184294306|0.6897848888490992|-0.914364218711853|-0.07552352547645569|-0.3977865874767303|0|0|0|-1|-1|3
2021-02-10 19:46:49.366 +0000|24924.10453841667|-0.989837646484375|-0.0558319091796875|-0.4083099365234375|24924.08457641667|-1.15016502061514|-1.164077484651143|0.07548127635290212|0.01898755691945553|-0.1207456886768341|0.0423155315220356|-0.1017846465110779|-0.01083296537399292|-0.03237789869308472|XArbitraryZVertical|-0.2723374221705511|-0.4781177195047127|-0.4714289652740338|0.689195518200959|-0.9158086776733398|-0.07540962100028992|-0.3944715559482574|0|0|0|-1|-1|3
2021-02-10 19:46:49.386 +0000|24924.12450041667|-0.980865478515625|-0.07012939453125|-0.40484619140625|24924.10453841667|-1.148854734591159|-1.16571953388451|0.07493833590329448|0.09655094146728516|-0.04191622510552406|0.04974983260035515|-0.0904194712638855|0.008141607046127319|-0.02628254890441895|XArbitraryZVertical|-0.2726039144931892|-0.4787436278628475|-0.4706331240648648|0.6891995713459519|-0.9164926409721375|-0.07486821711063385|-0.3929832875728607|0|0|0|-1|-1|3
2021-02-10 19:46:49.406 +0000|24924.14446241667|-0.95611572265625|-0.064300537109375|-0.399017333984375|24924.12450041667|-1.146537150348873|-1.166198657727879|0.07470717278640127|0.07904563844203949|0.009111270308494568|0.06385047733783722|-0.06335997581481934|0.01108495146036148|-0.01678138971328735|XArbitraryZVertical|-0.272243842800688|-0.4791741223764008|-0.4697175073545493|0.6896671101878021|-0.9166966676712036|-0.07463770359754562|-0.39255091547966|0|0|0|-1|-1|3
2021-02-10 19:46:49.426 +0000|24924.16442541667|-0.94635009765625|-0.079681396484375|-0.397979736328125|24924.14446241667|-1.145334266727378|-1.165786225829743|0.07347232028097443|0.001427221344783902|0.02953617088496685|0.09148094803094864|-0.05567115545272827|0.004451841115951538|-0.007349371910095215|XArbitraryZVertical|-0.2722985002290314|-0.4789269418934445|-0.4690836119712903|0.6902486130756185|-0.916618824005127|-0.07340623438358307|-0.3929650187492371|0|0|0|-1|-1|3
2021-02-10 19:46:49.446 +0000|24924.18438741667|-0.9444580078125|-0.100860595703125|-0.3843536376953125|24924.16442541667|-1.144640260345971|-1.16515401606446|0.07178858263414671|-0.006522780284285545|0.04173707216978073|0.09643478691577911|-0.02684634923934937|0.006358392536640167|-0.006736993789672852|XArbitraryZVertical|-0.2725838276316089|-0.478436783082157|-0.4685547697610101|0.6908347055094984|-0.9164823889732361|-0.07172694057226181|-0.3935925960540771|0|0|0|-1|-1|3
2021-02-10 19:46:49.467 +0000|24924.20434941667|-0.9429779052734375|-0.0773773193359375|-0.4035491943359375|24924.18438741667|-1.144506504468727|-1.164113702534101|0.06970173501575204|-0.06515065580606461|0.06303820759057999|0.09736280143260956|-0.03009629249572754|-0.02248716354370117|0.007549703121185303|XArbitraryZVertical|-0.2730513366336889|-0.4776409418566636|-0.4681850421374163|0.6914512559016834|-0.9162079691886902|-0.06964530795812607|-0.3946042060852051|0|0|0|-1|-1|3
2021-02-10 19:46:49.487 +0000|24924.22431141667|-0.9485626220703125|-0.083587646484375|-0.411956787109375|24924.22431141667|-1.144285920052823|-1.161634184991459|0.06644692918349204|0.04962864145636559|0.06970079243183136|0.07940626889467239|-0.03632181882858276|-0.006767779588699341|-0.01565015316009521|XArbitraryZVertical|-0.2735777648213851|-0.4761027247739371|-0.4677216160121692|0.6926166458139766|-0.9154298305511475|-0.06639804691076279|-0.3969627916812897|0|0|0|-1|-1|3
2021-02-10 19:46:49.506 +0000|24924.24427441667|-0.945587158203125|-0.079315185546875|-0.4066009521484375|24924.22431141667|-1.144285920052823|-1.161634184991459|0.06644692918349204|0.04962864145636559|0.06970079243183136|0.07940626889467239|-0.03632181882858276|-0.006767779588699341|-0.01565015316009521|XArbitraryZVertical|-0.2735777648213851|-0.4761027247739371|-0.4677216160121692|0.6926166458139766|-0.9154298305511475|-0.06639804691076279|-0.3969627916812897|0|0|0|-1|-1|3
2021-02-10 19:46:49.526 +0000|24924.26423641667|-0.9564056396484375|-0.0592803955078125|-0.401702880859375|24924.24427441667|-1.142637415061927|-1.159957385549835|0.06562926585557372|0.04536484926939011|0.1183070614933968|0.05316551774740219|-0.03176653385162354|-0.02580263465642929|-0.00989803671836853|XArbitraryZVertical|-0.2730850132114967|-0.4755682796973447|-0.467197184581964|0.6935315770627757|-0.9148123264312744|-0.06558216363191605|-0.3985187709331512|0|0|0|-1|-1|3
2021-02-10 19:46:49.546 +0000|24924.28419841667|-0.9197235107421875|-0.06072998046875|-0.376495361328125|24924.26423641667|-1.141241265020335|-1.157733750781221|0.06521291479213302|0.06024791300296783|0.1467770934104919|0.07140177488327026|-0.04421144723892212|-0.003894470632076263|-0.007136672735214233|XArbitraryZVertical|-0.2723824830714741|-0.4748961180923774|-0.4669231820701844|0.6944523495602253|-0.9139488339424133|-0.06516670435667038|-0.4005629122257233|0|0|0|-1|-1|3
2021-02-10 19:46:49.566 +0000|24924.30416041667|-0.9121551513671875|-0.0762939453125|-0.364837646484375|24924.28419841667|-1.139261715823625|-1.155214434502474|0.06507928728121323|0.08410204201936722|0.1624139547348022|0.06701892614364624|-0.02591311931610107|0.003220081329345703|0.01611840724945068|XArbitraryZVertical|-0.2713725121769651|-0.4742605835331402|-0.4665480304932304|0.6955334585498009|-0.9129448533058167|-0.06503336131572723|-0.4028677046298981|0|0|0|-1|-1|3
2021-02-10 19:46:49.585 +0000|24924.32412341667|-0.90240478515625|-0.0985260009765625|-0.358245849609375|24924.30416041667|-1.136873878728832|-1.15241786462795|0.06481573336232602|0.1142552644014359|0.1505326926708221|0.06697951257228851|-0.004047989845275879|1.215934753417969e-05|0.03797924518585205|XArbitraryZVertical|-0.2702489646284646|-0.4735529571494371|-0.4660369505327306|0.6967945139539675|-0.9118301868438721|-0.06477036327123642|-0.4054261744022369|0|0|0|-1|-1|3
2021-02-10 19:46:49.605 +0000|24924.34408541667|-0.90899658203125|-0.07757568359375|-0.373077392578125|24924.32412341667|-1.134860983052652|-1.149879852635364|0.06469534013545478|0.03394198790192604|0.137222945690155|0.05806804075837135|0.00656968355178833|-0.02649041265249252|0.05216667056083679|XArbitraryZVertical|-0.2692246588167393|-0.4729132502648322|-0.4656506826904865|0.6978828351051842|-0.910805344581604|-0.06465022265911102|-0.4077422916889191|0|0|0|-1|-1|3
2021-02-10 19:46:49.625 +0000|24924.36404741667|-0.918914794921875|-0.070587158203125|-0.37353515625|24924.34408541667|-1.134469014267743|-1.147791721910461|0.06394125486612236|-0.02045024745166302|0.1147290393710136|0.03750914707779884|0.006202936172485352|-0.03087455034255981|0.04334533214569092|XArbitraryZVertical|-0.268916234589457|-0.4720725267390647|-0.4656275561036705|0.6985860506467877|-0.9099962115287781|-0.06389769166707993|-0.4096631705760956|0|0|0|-1|-1|3
2021-02-10 19:46:49.645 +0000|24924.38400941667|-0.9091949462890625|-0.05340576171875|-0.3824920654296875|24924.36404741667|-1.134704627393316|-1.14641268510058|0.06313107022203933|-0.04236045479774475|0.1015730276703835|0.01425566710531712|-0.004295229911804199|-0.004598759114742279|0.03516063094139099|XArbitraryZVertical|-0.2689412983461902|-0.4713821559402046|-0.4657158305793764|0.6989836135848092|-0.9094772338867188|-0.06308913975954056|-0.4109388887882233|0|0|0|-1|-1|3
2021-02-10 19:46:49.665 +0000|24924.40397241667|-0.88726806640625|-0.04345703125|-0.376556396484375|24924.38400941667|-1.135444630220711|-1.145553375120095|0.062565581064703|-0.05013081058859825|0.09017501771450043|-0.0002035216894000769|-0.005241930484771729|-0.003484658896923065|0.03400352597236633|XArbitraryZVertical|-0.2691182645436476|-0.4708586781555123|-0.4659648885730259|0.6991024056141841|-0.9091562032699585|-0.06252477318048477|-0.411734938621521|0|0|0|-1|-1|3
2021-02-10 19:46:49.685 +0000|24924.42393441667|-0.8774566650390625|-0.04510498046875|-0.389068603515625|24924.40397241667|-1.135700719816266|-1.14512772888825|0.06282125441550707|0.008882990106940269|0.07869818061590195|0.01653453521430492|0.006332635879516602|0.01990285515785217|0.03148472309112549|XArbitraryZVertical|-0.2689876409775215|-0.4707313626376147|-0.4661682298195842|0.6991028824454049|-0.9089663028717041|-0.06277994066476822|-0.4121152758598328|0|0|0|-1|-1|3
2021-02-10 19:46:49.705 +0000|24924.44389641667|-0.8797607421875|-0.0576019287109375|-0.4005584716796875|24924.42393441667|-1.134908841357737|-1.144885389899875|0.06387040649510961|0.0575547032058239|0.06881183385848999|0.003053346648812294|0.0309983491897583|0.02214008569717407|0.0311586856842041|XArbitraryZVertical|-0.2683683189314506|-0.4709823875890002|-0.466155951292007|0.6991799512610811|-0.9088058471679688|-0.06382699310779572|-0.4123080670833588|0|0|0|-1|-1|3
2021-02-10 19:46:49.725 +0000|24924.46385941667|-0.878448486328125|-0.051300048828125|-0.4061126708984375|24924.44389641667|-1.13384345169234|-1.144479203169275|0.06456231542470729|0.04424092918634415|0.05752476677298546|-0.01140477694571018|0.03138548135757446|0.0134006142616272|0.01692205667495728|XArbitraryZVertical|-0.2677743288516454|-0.4711342602088894|-0.4659908166557068|0.6994154492138256|-0.9085979461669922|-0.06451747566461563|-0.4126588404178619|0|0|0|-1|-1|3
2021-02-10 19:46:49.745 +0000|24924.48382141667|-0.873779296875|-0.0398712158203125|-0.39141845703125|24924.46385941667|-1.133498772612733|-1.144157397153381|0.06522515901792793|0.006615675054490566|0.04532429575920105|-0.03414719551801682|0.02283644676208496|0.007348209619522095|0.0109710693359375|XArbitraryZVertical|-0.267380073942221|-0.4712124614984022|-0.4660597792463737|0.6994676628850968|-0.9084259271621704|-0.06517892330884933|-0.4129334390163422|0|0|0|-1|-1|3
2021-02-10 19:46:49.765 +0000|24924.50378341667|-0.8780364990234375|-0.0106658935546875|-0.383880615234375|24924.48382141667|-1.133874185802781|-1.144034312852043|0.06571233668171748|-0.00939062237739563|0.02870877832174301|-0.04860443249344826|0.03531450033187866|0.01970565319061279|0.0109933614730835|XArbitraryZVertical|-0.2672648581787632|-0.4712255149216866|-0.4663150957410583|0.6993326583688144|-0.9083460569381714|-0.06566505134105682|-0.4130320250988007|0|0|0|-1|-1|3
2021-02-10 19:46:49.796 +0000|24924.52374541667|-0.8737945556640625|-0.024871826171875|-0.3888397216796875|24924.50378341667|-1.134163704535788|-1.144108413369051|0.06624180191673491|0.02635149657726288|0.006523902993649244|-0.04556301608681679|0.03052210807800293|0.04451069235801697|0.02522438764572144|XArbitraryZVertical|-0.2671601626326201|-0.4713282435322507|-0.4665232947647414|0.6991645732797356|-0.9083449244499207|-0.0661933645606041|-0.4129502773284912|0|0|0|-1|-1|3
2021-02-10 19:46:49.809 +0000|24924.54370841667|-0.87347412109375|-0.0371551513671875|-0.3962554931640625|24924.54370841667|-1.133240530366577|-1.144960020820448|0.06683393476667086|0.03855276852846146|-0.0368904173374176|-0.003436332801356912|0.03787189722061157|0.04545251280069351|0.0168813169002533|XArbitraryZVertical|-0.2669283601607487|-0.471878275183604|-0.46621761236258|0.6990859547811654|-0.908660352230072|-0.06678418815135956|-0.4121602773666382|0|0|0|-1|-1|3
2021-02-10 19:46:49.825 +0000|24924.56367041667|-0.8873748779296875|-0.0347900390625|-0.393829345703125|24924.54370841667|-1.133240530366577|-1.144960020820448|0.06683393476667086|0.03855276852846146|-0.0368904173374176|-0.003436332801356912|0.03787189722061157|0.04545251280069351|0.0168813169002533|XArbitraryZVertical|-0.2669283601607487|-0.471878275183604|-0.46621761236258|0.6990859547811654|-0.908660352230072|-0.06678418815135956|-0.4121602773666382|0|0|0|-1|-1|3
2021-02-10 19:46:49.845 +0000|24924.58363241667|-0.8926239013671875|-0.028045654296875|-0.4102325439453125|24924.56367041667|-1.132809148321497|-1.145762767974044|0.06658030174922705|0.01621831767261028|-0.05088479444384575|0.01858365908265114|0.02800971269607544|0.02545455098152161|0.01498377323150635|XArbitraryZVertical|-0.2671047004830395|-0.4721612184272206|-0.4659036150936598|0.6990369597776298|-0.9090063571929932|-0.06653112173080444|-0.4114377200603485|0|0|0|-1|-1|3
2021-02-10 19:46:49.866 +0000|24924.60359441667|-0.9145050048828125|-0.0124053955078125|-0.4168853759765625|24924.58363241667|-1.132359863242396|-1.147095079054964|0.06539786871938746|0.007330267690122128|-0.06971089541912079|0.04139203578233719|0.01983904838562012|0.03060707449913025|0.01395702362060547|XArbitraryZVertical|-0.267733410231918|-0.4724295287296568|-0.4653067937714048|0.6990126410955598|-0.9096247553825378|-0.06535126268863678|-0.4102583229541779|0|0|0|-1|-1|3
2021-02-10 19:46:49.885 +0000|24924.62355741667|-0.930877685546875|-0.0257415771484375|-0.42926025390625|24924.60359441667|-1.131647861767351|-1.148948387393731|0.06367706726358578|0.02409673109650612|-0.08029136806726456|0.06222514435648918|0.009239733219146729|0.05354806780815125|-0.008771717548370361|XArbitraryZVertical|-0.2686135323527516|-0.4727982132501679|-0.4644278040562649|0.6990102569268236|-0.910484790802002|-0.06363404542207718|-0.408617228269577|0|0|0|-1|-1|3
2021-02-10 19:46:49.905 +0000|24924.64351941667|-0.9280548095703125|-0.017120361328125|-0.4283599853515625|24924.62355741667|-1.130908005486632|-1.150410239036309|0.06179992112228246|-0.000817091204226017|-0.06160252541303635|0.06768116354942322|-0.01257842779159546|0.03995584696531296|-0.01602131128311157|XArbitraryZVertical|-0.2694509775493656|-0.4730002431824489|-0.4635551920400115|0.6991305987107148|-0.9111886620521545|-0.06176058948040009|-0.4073338806629181|0|0|0|-1|-1|3
2021-02-10 19:46:49.925 +0000|24924.66348141667|-0.9101715087890625|-0.0424346923828125|-0.4220428466796875|24924.64351941667|-1.13052027992258|-1.151353171925243|0.05997354307457966|-0.01128173340111971|-0.04251788929104805|0.07646462321281433|-0.021462082862854|0.03601190447807312|-0.02380865812301636|XArbitraryZVertical|-0.2702323943908492|-0.4729847459678062|-0.4628854742320296|0.6992831865964189|-0.9116738438606262|-0.05993759632110596|-0.4065197706222534|0|0|0|-1|-1|3
2021-02-10 19:46:49.945 +0000|24924.68344341667|-0.9251556396484375|-0.021270751953125|-0.4270782470703125|24924.66348141667|-1.129920310025839|-1.152098342997538|0.05811758361678751|0.001971205230802298|-0.02828893810510635|0.0744842141866684|-0.007219672203063965|0.03687521070241928|-0.01978975534439087|XArbitraryZVertical|-0.2709278613342357|-0.4729224889058522|-0.4621605625284578|0.6995356122573815|-0.9120765924453735|-0.0580848716199398|-0.4058848321437836|0|0|0|-1|-1|3
2021-02-10 19:46:49.965 +0000|24924.70340641667|-0.906707763671875|-0.0347137451171875|-0.4121551513671875|24924.68344341667|-1.129396511236133|-1.152297403246511|0.05574951558932145|0.008296013809740543|-0.01708406209945679|0.08500617742538452|-0.003689348697662354|0.02045768871903419|-0.02122876048088074|XArbitraryZVertical|-0.2716982513135298|-0.4725474266672797|-0.4614208092653241|0.6999783555295128|-0.9122803807258606|-0.05572064220905304|-0.4057579934597015|0|0|0|-1|-1|3
2021-02-10 19:46:49.985 +0000|24924.72336841667|-0.9072418212890625|-0.0544281005859375|-0.419921875|24924.70340641667|-1.128239426730436|-1.152341989930356|0.05340205008149331|0.02167773060500622|-0.01042061857879162|0.08741430193185806|-0.01025289297103882|0.02993926405906677|-0.01131445169448853|XArbitraryZVertical|-0.2722758500651068|-0.4722088424619635|-0.4604838838513944|0.7005991378727668|-0.9124155044555664|-0.05337667092680931|-0.4057693481445312|0|0|0|-1|-1|3
2021-02-10 19:46:50.005 +0000|24924.74333041667|-0.8985443115234375|-0.050445556640625|-0.423065185546875|24924.72336841667|-1.127506842802213|-1.152204823735138|0.05134811859925887|-0.01589219830930233|-0.006293145939707756|0.08163745701313019|0.01022124290466309|0.0009563565254211426|-0.01264095306396484|XArbitraryZVertical|-0.2728067783921568|-0.4718128291877409|-0.4597852280009986|0.7011181750873385|-0.9124581813812256|-0.05132555589079857|-0.4059382379055023|0|0|0|-1|-1|3
2021-02-10 19:46:50.025 +0000|24924.76329341667|-0.902008056640625|-0.0384979248046875|-0.4149627685546875|24924.74333041667|-1.127490758162843|-1.151987037668234|0.04900807208974244|-0.04215302690863609|-0.008948263712227345|0.06260757148265839|0.01025527715682983|0.0002214610576629639|-0.0166364312171936|XArbitraryZVertical|-0.2735906092296572|-0.4712280182109475|-0.4592839529148885|0.7015344538880359|-0.9124769568443298|-0.0489884577691555|-0.4061846733093262|0|0|0|-1|-1|3
2021-02-10 19:46:50.045 +0000|24924.78325541667|-0.907928466796875|-0.0345001220703125|-0.422515869140625|24924.76329341667|-1.127631396839205|-1.151858999916348|0.04762631643529866|0.002896270714700222|-0.0108009185642004|0.04053210094571114|0.01539123058319092|-0.0005788505077362061|-0.01160967350006104|XArbitraryZVertical|-0.2740887848264623|-0.4708619860868717|-0.4590403487147827|0.7017452158892008|-0.9124858975410461|-0.04760831221938133|-0.4063286483287811|0|0|0|-1|-1|3
2021-02-10 19:46:50.065 +0000|24924.80321741667|-0.936279296875|-0.0361328125|-0.43865966796875|24924.78325541667|-1.126780302548878|-1.151832954653223|0.04672643620940409|0.05030436441302299|-0.003840641118586063|0.02254688739776611|0.007240712642669678|0.01512384787201881|-0.007311433553695679|XArbitraryZVertical|-0.2742044774157906|-0.4707728473268259|-0.458542888356967|0.7020849027467932|-0.9125140309333801|-0.04670943319797516|-0.4063696563243866|0|0|0|-1|-1|3
2021-02-10 19:46:50.084 +0000|24924.82317941667|-0.925262451171875|-0.0340576171875|-0.4329071044921875|24924.80321741667|-1.125859835227781|-1.151508989044639|0.04676430472360408|0.03082547523081303|0.02091397345066071|0.01264951471239328|-0.01144731044769287|0.014139324426651|-0.02757012844085693|XArbitraryZVertical|-0.2738999870832624|-0.4707935003224367|-0.4582726111164851|0.7023663558732275|-0.9123807549476624|-0.04674726352095604|-0.4066645503044128|0|0|0|-1|-1|3
2021-02-10 19:46:50.104 +0000|24924.84314241667|-0.91156005859375|-0.0403900146484375|-0.407196044921875|24924.82317941667|-1.125648773970678|-1.150572900875119|0.04673966566314022|-0.006353603210300207|0.04220461472868919|0.005812026560306549|-0.02258479595184326|0.006714198738336563|-0.03487923741340637|XArbitraryZVertical|-0.2736446705963223|-0.4704882053270548|-0.4583210697035089|0.7026386894739509|-0.9120006561279297|-0.0467226505279541|-0.4075188934803009|0|0|0|-1|-1|3
2021-02-10 19:46:50.124 +0000|24924.86310441667|-0.90380859375|-0.02593994140625|-0.391571044921875|24924.84314241667|-1.125912750447944|-1.149298066592234|0.04661614516286854|-0.01344172284007072|0.04474303126335144|0.001897801063023508|-0.008863329887390137|0.009276363998651505|-0.01079583168029785|XArbitraryZVertical|-0.2734587637253621|-0.4699771551039555|-0.4585604419596321|0.7028968371599159|-0.9114856719970703|-0.04659926518797874|-0.408683568239212|0|0|0|-1|-1|3
2021-02-10 19:46:50.144 +0000|24924.88306641667|-0.9024658203125|-0.04229736328125|-0.395294189453125|24924.86310441667|-1.125684644546334|-1.148610216947764|0.04643898761924224|0.04328304156661034|0.0157766304910183|0.003749941010028124|0.006518363952636719|0.009053617715835571|0.008907854557037354|XArbitraryZVertical|-0.27331091440668|-0.4697278288700054|-0.4585345139468443|0.7031379379301714|-0.9112119078636169|-0.04642229899764061|-0.409313827753067|0|0|0|-1|-1|3
2021-02-10 19:46:50.165 +0000|24924.90302841667|-0.8983612060546875|-0.034698486328125|-0.41046142578125|24924.88306641667|-1.124309672340571|-1.14822327174412|0.04671629855578003|0.08543857932090759|-0.00224317004904151|0.0007072794251143932|0.008011341094970703|0.0138777494430542|0.01631999015808105|XArbitraryZVertical|-0.2727998641784543|-0.4698400643960703|-0.4581660678686025|0.7035015262593475|-0.9110416769981384|-0.04669930785894394|-0.4096610844135284|0|0|0|-1|-1|3
2021-02-10 19:46:50.184 +0000|24924.92299141667|-0.8906097412109375|-0.039276123046875|-0.4126739501953125|24924.90302841667|-1.122958293486268|-1.148075682506928|0.04708529009796373|0.04955738410353661|-0.01140923798084259|0.004377647768706083|0.01059013605117798|0.009088844060897827|0.008543252944946289|XArbitraryZVertical|-0.2723162022835816|-0.470052823156503|-0.4577935686733009|0.7037892378823857|-0.9109654426574707|-0.04706789553165436|-0.4097884595394135|0|0|0|-1|-1|3
2021-02-10 19:46:50.204 +0000|24924.94295341667|-0.89404296875|-0.035980224609375|-0.4012298583984375|24924.92299141667|-1.122485679846692|-1.148253050218614|0.04696000440702464|0.005545217543840408|-0.01692874543368816|0.002794398926198483|0.01231616735458374|0.008490681648254395|-0.007637619972229004|XArbitraryZVertical|-0.2722906318814254|-0.4701522734996527|-0.4575749686454039|0.7038748897593878|-0.9110435247421265|-0.04694274812936783|-0.4096293151378632|0|0|0|-1|-1|3
2021-02-10 19:46:50.224 +0000|24924.96291541667|-0.907867431640625|-0.0204010009765625|-0.402618408203125|24924.94295341667|-1.122798546437252|-1.148657415412843|0.04670990275464783|-0.02969972230494022|-0.01453941129148006|0.0003816636744886637|0.02656096220016479|0.005585823208093643|0.001184552907943726|XArbitraryZVertical|-0.2725464550100909|-0.4701974240229183|-0.4575738063428569|0.7037463225459577|-0.9112196564674377|-0.04669291898608208|-0.4092656373977661|0|0|0|-1|-1|3
2021-02-10 19:46:50.244 +0000|24924.98287741667|-0.903228759765625|-0.019989013671875|-0.3968963623046875|24924.96291541667|-1.123183350581772|-1.149126259459369|0.04609236012564941|-0.01395401451736689|-0.008302287198603153|0.01151909120380878|0.005248725414276123|0.02234870567917824|0.007910102605819702|XArbitraryZVertical|-0.2729655948581264|-0.4701752212981424|-0.4575064828786925|0.7036424912562602|-0.9114375710487366|-0.04607604071497917|-0.4088501036167145|0|0|0|-1|-1|3
2021-02-10 19:46:50.265 +0000|24925.00284041667|-0.8964996337890625|-0.031402587890625|-0.389617919921875|24924.98287741667|-1.123035828298307|-1.149335471899359|0.04563146212984082|0.008060939610004425|-0.004519586451351643|0.02598671428859234|0.005933403968811035|0.03174549341201782|0.008765637874603271|XArbitraryZVertical|-0.2731439319420791|-0.4701684263661622|-0.4573223939297116|0.7036976255508776|-0.9115424752235413|-0.04561562836170197|-0.4086681008338928|0|0|0|-1|-1|3
2021-02-10 19:46:50.291 +0000|24925.02280241667|-0.903106689453125|-0.0306243896484375|-0.390960693359375|24925.00284041667|-1.122907728146913|-1.149334400448587|0.044937952114196|-0.01317062973976135|-0.01565911062061787|0.02573513425886631|0.01488792896270752|0.01612958312034607|0.01650041341781616|XArbitraryZVertical|-0.2733622041362342|-0.4700342265055053|-0.4571214666671924|0.7038329280846636|-0.9115706086158752|-0.04492282867431641|-0.4086818695068359|0|0|0|-1|-1|3
2021-02-10 19:46:50.304 +0000|24925.042764|-0.9064483642578125|-0.0358123779296875|-0.3959197998046875|24925.02280241667|-1.122903015020629|-1.149422183102992|0.04425369590232035|-0.01835688576102257|-0.01030557043850422|0.02804196439683437|0.01109117269515991|0.0116770900785923|0.02093419432640076|XArbitraryZVertical|-0.2736264017095442|-0.4699164179241132|-0.456953828595761|0.7039177454863811|-0.9116342663764954|-0.04423925280570984|-0.408614307641983|0|0|0|-1|-1|3
2021-02-10 19:46:50.324 +0000|24925.062727|-0.8911895751953125|-0.0358123779296875|-0.399993896484375|24925.042764|-1.122848951378782|-1.149393868449529|0.04316481637608711|-0.01636019721627235|0.01789038069546223|0.04640002176165581|0.0006402134895324707|0.01156580448150635|0.01512014865875244|XArbitraryZVertical|-0.2739973809968994|-0.4696760919938207|-0.4566935351014642|0.7041028178922454|-0.911666214466095|-0.04315141215920448|-0.4086596071720123|0|0|0|-1|-1|3
2021-02-10 19:46:50.344 +0000|24925.082689|-0.8826751708984375|-0.0501251220703125|-0.3801727294921875|24925.062727|-1.122950978759009|-1.149016984649763|0.04148561585920287|-0.03723443672060966|0.02585243247449398|0.05938364192843437|0.01747304201126099|0.002426564693450928|0.009023070335388184|XArbitraryZVertical|-0.2745368626092966|-0.4691624191632835|-0.4564029028359652|0.7044235504532486|-0.9115769267082214|-0.04147371649742126|-0.4090322852134705|0|0|0|-1|-1|3
2021-02-10 19:46:50.364 +0000|24925.102651|-0.8980560302734375|-0.06072998046875|-0.3733367919921875|24925.082689|-1.123341280078619|-1.148536748668925|0.03960268630267665|-0.07150757312774658|0.03103254735469818|0.06323182582855225|0.02277827262878418|0.00249829888343811|0.01994436979293823|XArbitraryZVertical|-0.2751931395233746|-0.4685275700935961|-0.4561820676022638|0.7047330773356048|-0.9114500880241394|-0.03959233686327934|-0.409501314163208|0|0|0|-1|-1|3
2021-02-10 19:46:50.384 +0000|24925.122613|-0.88134765625|-0.06402587890625|-0.3794708251953125|24925.102651|-1.124482383267062|-1.14815794653589|0.03735433890436485|-0.1136489361524582|0.02808533236384392|0.08728282898664474|0.0222136378288269|-0.01938643679022789|0.03117403388023376|XArbitraryZVertical|-0.2761787619014754|-0.4677438584340687|-0.4561294962610322|0.7049019372528348|-0.9113736748695374|-0.03734565153717995|-0.4098819494247437|0|0|0|-1|-1|3
2021-02-10 19:46:50.404 +0000|24925.142576|-0.9044647216796875|-0.0741119384765625|-0.370574951171875|24925.122613|-1.126366721668463|-1.148040628556195|0.03437628099029491|-0.1877776235342026|0.01301727537065744|0.09896983951330185|0.01972997188568115|-0.02803885564208031|0.03881683945655823|XArbitraryZVertical|-0.2776573742865868|-0.4667869356869743|-0.4561380494583986|0.7049498593406556|-0.9114229679107666|-0.03436950966715813|-0.4100326895713806|0|0|0|-1|-1|3
2021-02-10 19:46:50.424 +0000|24925.162538|-1.007553100585938|-0.0957489013671875|-0.389984130859375|24925.142576|-1.130272228788954|-1.148060172804858|0.03039668422408955|-0.3301184773445129|-0.01553809642791748|0.1276422291994095|0.01932144165039062|-0.0379672646522522|0.02940669655799866|XArbitraryZVertical|-0.2799931014631374|-0.4653708187846124|-0.456613157960679|0.7046546374755533|-0.9115484952926636|-0.0303920041769743|-0.4100677371025085|0|0|0|-1|-1|3
2021-02-10 19:46:50.444 +0000|24925.1825|-1.0694580078125|-0.146392822265625|-0.373626708984375|24925.162538|-1.137888823618749|-1.148591973929371|0.02391376233903624|-0.6287993192672729|-0.03707007318735123|0.1739934086799622|-0.03208839893341064|-0.04141131043434143|0.02990949153900146|XArbitraryZVertical|-0.2841908479230192|-0.463042154822264|-0.4577549741129274|0.7037668858086437|-0.9119270443916321|-0.0239114835858345|-0.4096550643444061|0|0|0|-1|-1|3
2021-02-10 19:46:50.464 +0000|24925.202462|-1.135147094726562|-0.26593017578125|-0.4245758056640625|24925.1825|-1.15078513152216|-1.149065950634278|0.01467626370530004|-1.013103485107422|0.01888219453394413|0.2171170860528946|-0.1440516710281372|-0.0899689793586731|0.02698671817779541|XArbitraryZVertical|-0.2905461335138432|-0.4592766911698278|-0.4601299506284549|0.7020884784811368|-0.912283718585968|-0.01467573642730713|-0.4092957377433777|0|0|0|-1|-1|3
2021-02-10 19:46:50.484 +0000|24925.222425|-1.136810302734375|-0.2894287109375|-0.40234375|24925.202462|-1.174206896078119|-1.148778150114727|-0.001104554485595413|-1.737790465354919|0.1107095927000046|0.3069351315498352|-0.1969130039215088|-0.217046856880188|0.02352419495582581|XArbitraryZVertical|-0.3013602339560598|-0.4520851228834726|-0.4648061728045672|0.6991109281875791|-0.9122635126113892|0.001104554277844727|-0.4096021056175232|0|0|0|-1|-1|3
2021-02-10 19:46:50.504 +0000|24925.242387|-1.224746704101562|-0.451324462890625|-0.3818511962890625|24925.222425|-1.211523424078994|-1.146273245175162|-0.02470898615214314|-2.678537607192993|0.1704801321029663|0.3315113186836243|-0.2459641695022583|-0.2604852020740509|-0.01576030254364014|XArbitraryZVertical|-0.3172718428544433|-0.4398389617206033|-0.4728587593642391|0.6944673682723204|-0.9109571576118469|0.02470647171139717|-0.411760538816452|0|0|0|-1|-1|3
2021-02-10 19:46:50.525 +0000|24925.262349|-1.211410522460938|-0.2371673583984375|-0.3826904296875|24925.242387|-1.269826159251954|-1.145069390483262|-0.06035557323811723|-3.921945810317993|0.2296295315027237|0.4683903455734253|-0.2368392944335938|-0.4333962500095367|0.02708381414413452|XArbitraryZVertical|-0.341597302992954|-0.4209463167677945|-0.4851368080977984|0.6861178893495539|-0.909080445766449|0.06031893566250801|-0.4122309684753418|0|0|0|-1|-1|3
2021-02-10 19:46:50.544 +0000|24925.282312|-1.148361206054688|-0.2520904541015625|-0.29376220703125|24925.262349|-1.345731349114031|-1.142968831671769|-0.106222843663011|-4.884605407714844|0.5780178308486938|0.5427052974700928|-0.3438857197761536|-0.4062092900276184|0.07108011841773987|XArbitraryZVertical|-0.3715366564237044|-0.3945658684539259|-0.5010035925353719|0.6747396597326391|-0.9047408699989319|0.1060231998562813|-0.4125565886497498|0|0|0|-1|-1|3
2021-02-10 19:46:50.564 +0000|24925.302274|-1.077957153320312|-0.0102386474609375|-0.2743988037109375|24925.282312|-1.435100870161273|-1.140655986667026|-0.1607508436895825|-5.396302223205566|0.944487452507019|0.6816126704216003|-0.3144808411598206|-0.482050359249115|0.06648358702659607|XArbitraryZVertical|-0.4047825775375273|-0.3610263065699125|-0.5190215978017358|0.660626649538244|-0.8971890211105347|0.1600594222545624|-0.4116221368312836|0|0|0|-1|-1|3
2021-02-10 19:46:50.588 +0000|24925.322236|-1.012313842773438|0.007659912109375|-0.3217010498046875|24925.302274|-1.53161891164325|-1.138125492715514|-0.2192910683747192|-5.504202842712402|1.105244278907776|0.7269700169563293|-0.2539982795715332|-0.2598808109760284|0.09413111209869385|XArbitraryZVertical|-0.4376864276423765|-0.3221843753255087|-0.5378809226251525|0.6444469673006663|-0.886107861995697|0.2175377309322357|-0.4092556238174438|0|0|0|-1|-1|3
2021-02-10 19:46:50.605 +0000|24925.342198|-1.054046630859375|0.21728515625|-0.2705535888671875|24925.322236|-1.627962908878188|-1.135714490045545|-0.2787151866729622|-5.516073226928711|1.458202958106995|0.7953861951828003|-0.1761025190353394|-0.3401535749435425|0.09696128964424133|XArbitraryZVertical|-0.4676299832889649|-0.280557506566141|-0.5556864971004476|0.6275524464473597|-0.8718404173851013|0.2751206457614899|-0.4052193760871887|0|0|0|-1|-1|3
2021-02-10 19:46:50.624 +0000|24925.362161|-1.053726196289062|0.445709228515625|-0.280181884765625|24925.342198|-1.72561628316042|-1.131379780081479|-0.3410716660220989|-5.665290832519531|1.864462614059448|0.894740104675293|-0.1923273801803589|-0.2758118212223053|0.1353424787521362|XArbitraryZVertical|-0.4944474243801263|-0.2346668345782492|-0.5728713489690046|0.6101407359060543|-0.8528690934181213|0.3344972133636475|-0.4009064435958862|0|0|0|-1|-1|3
2021-02-10 19:46:50.644 +0000|24925.382123|-0.9709014892578125|0.5089874267578125|-0.4038848876953125|24925.362161|-1.822885109726079|-1.12330996296544|-0.405023245151083|-5.389955520629883|2.300423860549927|0.9623732566833496|-0.2017067670822144|-0.1363343596458435|0.1259790658950806|XArbitraryZVertical|-0.5166336442784414|-0.1850500230297223|-0.5896720491301567|0.5925647547950428|-0.8285970687866211|0.3940401375293732|-0.3976923227310181|0|0|0|-1|-1|3
2021-02-10 19:46:50.664 +0000|24925.402085|-0.8934783935546875|0.65753173828125|-0.6793212890625|24925.382123|-1.913756316542911|-1.112805651391739|-0.4673599345287227|-4.884016990661621|2.579847574234009|1.035873293876648|-0.1681166887283325|-0.02384930849075317|0.04745656251907349|XArbitraryZVertical|-0.533236935584788|-0.135250612616002|-0.6047854613122569|0.5758473189586032|-0.8007553219795227|0.4505309164524078|-0.3947312831878662|0|0|0|-1|-1|3
2021-02-10 19:46:50.685 +0000|24925.422047|-0.8978271484375|0.5709075927734375|-0.612640380859375|24925.402085|-1.996352456503513|-1.103024546930738|-0.5271636981337687|-4.374604225158691|2.529681921005249|1.08798611164093|-0.171062171459198|0.05348026752471924|-0.1254227757453918|XArbitraryZVertical|-0.5454228670492067|-0.0875910758939447|-0.6171744646676263|0.5603011144635734|-0.7713968753814697|0.503084123134613|-0.3896833956241608|0|0|0|-1|-1|3
2021-02-10 19:46:50.705 +0000|24925.44201|-0.8795318603515625|0.6151275634765625|-0.60052490234375|24925.422047|-2.070801231157461|-1.094929073739124|-0.5863201487700406|-4.158514976501465|2.225584030151367|1.261447548866272|-0.194822371006012|0.02392518520355225|-0.2585853636264801|XArbitraryZVertical|-0.5544692429879131|-0.04201544035569355|-0.6262923653486876|0.5464030976620697|-0.740434467792511|0.5532995462417603|-0.3815971314907074|0|0|0|-1|-1|3
2021-02-10 19:46:50.724 +0000|24925.461972|-0.82562255859375|0.8570709228515625|-0.5109100341796875|24925.44201|-2.147629195078942|-1.096265395071245|-0.6490766603355443|-4.472367763519287|2.110605239868164|1.429661393165588|-0.1571493744850159|0.03226768970489502|-0.3303942084312439|XArbitraryZVertical|-0.5639011415925324|0.003757099552769516|-0.6318612863442585|0.5317449428361384|-0.7086189389228821|0.6044511198997498|-0.3640027642250061|0|0|0|-1|-1|3
2021-02-10 19:46:50.743 +0000|24925.481934|-0.696075439453125|0.8226470947265625|-0.48455810546875|24925.461972|-2.239853935005814|-1.111901848104194|-0.7144425462252298|-4.593814373016357|2.214001178741455|1.22289764881134|-0.2095704078674316|-0.0294029712677002|-0.1588180959224701|XArbitraryZVertical|-0.5744479449729216|0.05188123894834391|-0.6358419223600171|0.5128574808343448|-0.6773008108139038|0.6551963686943054|-0.3346357941627502|0|0|0|-1|-1|3
2021-02-10 19:46:50.763 +0000|24925.501897|-0.5792694091796875|0.7763671875|-0.450592041015625|24925.481934|-2.33018659116475|-1.128870253147972|-0.7750990314184729|-4.157818794250488|2.230010986328125|1.341840147972107|-0.1019569039344788|0.123867392539978|-0.2171443700790405|XArbitraryZVertical|-0.5810805113913237|0.0979182998987443|-0.6389473239771848|0.4944732609345313|-0.6457237005233765|0.6997868418693542|-0.3055149018764496|0|0|0|-1|-1|3
2021-02-10 19:46:50.793 +0000|24925.521859|-0.445953369140625|0.76513671875|-0.4163055419921875|24925.501897|-2.422864558382513|-1.152107743152197|-0.8359833851256235|-4.160581111907959|2.104181289672852|1.534627199172974|-0.03529012203216553|0.1398339867591858|-0.1894111037254333|XArbitraryZVertical|-0.5857388527063857|0.143597949077706|-0.6396986403021776|0.4765240953431795|-0.6125369071960449|0.7419561743736267|-0.2725792527198792|0|0|0|-1|-1|3
2021-02-10 19:46:50.805 +0000|24925.541821|-0.44659423828125|0.8094329833984375|-0.322784423828125|24925.521859|-2.51174747668289|-1.182580925275725|-0.8941964364484866|-3.328606128692627|1.638866662979126|1.64648962020874|0.0638197660446167|-0.02013891935348511|-0.2311049699783325|XArbitraryZVertical|-0.5891019253656266|0.1856050508294104|-0.6371489919396766|0.4610323101556953|-0.5795515179634094|0.7797061800956726|-0.2370193749666214|0|0|0|-1|-1|3
2021-02-10 19:46:50.823 +0000|24925.561783|-0.311553955078125|0.7500152587890625|-0.37799072265625|24925.541821|-2.57517969633788|-1.20241756640667|-0.9428946754196074|-2.024722576141357|1.367506146430969|1.511020183563232|0.07525926828384399|-0.01754438877105713|-0.1335659623146057|XArbitraryZVertical|-0.588519766646632|0.2188000534149268|-0.6336386957241293|0.4519657867138309|-0.5480375289916992|0.8092619776725769|-0.2115420401096344|0|0|0|-1|-1|3
2021-02-10 19:46:50.843 +0000|24925.581746|-0.280914306640625|0.54241943359375|-0.41351318359375|24925.561783|-2.591494983612796|-1.19245502794428|-0.9800891722463042|-0.3086493909358978|1.065818786621094|1.728175163269043|0.1426366567611694|-0.1087299585342407|-0.2167294323444366|XArbitraryZVertical|-0.5825914886997701|0.2402591108197583|-0.6308558744259406|0.4526407486906411|-0.5175604224205017|0.830547034740448|-0.2057254314422607|0|0|0|-1|-1|3
2021-02-10 19:46:50.864 +0000|24925.601708|-0.143585205078125|0.70086669921875|-0.2459259033203125|24925.601708|-2.533806265932097|-1.095886859464576|-1.039111333402007|0.5823283195495605|1.297428250312805|1.632291436195374|0.2635787725448608|-0.3001558780670166|-0.1338379681110382|XArbitraryZVertical|-0.5582892450878899|0.2690749018289511|-0.6296104961590916|0.4685109604474788|-0.4508804678916931|0.8619540333747864|-0.2318236380815506|0|0|0|-1|-1|3
2021-02-10 19:46:50.883 +0000|24925.62167|-0.2114715576171875|0.8114471435546875|-0.15802001953125|24925.601708|-2.533806265932097|-1.095886859464576|-1.039111333402007|0.5823283195495605|1.297428250312805|1.632291436195374|0.2635787725448608|-0.3001558780670166|-0.1338379681110382|XArbitraryZVertical|-0.5582892450878899|0.2690749018289511|-0.6296104961590916|0.4685109604474788|-0.4508804678916931|0.8619540333747864|-0.2318236380815506|0|0|0|-1|-1|3
2021-02-10 19:46:50.903 +0000|24925.641632|-0.2573394775390625|0.5900726318359375|0.10198974609375|24925.62167|-2.477471184189446|-1.019023033006114|-1.059569123596913|0.7336051464080811|1.552865147590637|1.489965438842773|0.2075047194957733|-0.08013737201690674|-0.01071852445602417|XArbitraryZVertical|-0.5417104520968581|0.2798541934127277|-0.6318077029033314|0.4785921018746774|-0.4166416525840759|0.8721447587013245|-0.2564628422260284|0|0|0|-1|-1|3
2021-02-10 19:46:50.923 +0000|24925.661595|-0.076416015625|0.6668243408203125|-0.050537109375|24925.641632|-2.43766956397564|-0.9485745311218873|-1.082461935219504|-0.6836456060409546|1.920789003372192|1.435324549674988|0.0654178261756897|-0.1908395290374756|0.2898620367050171|XArbitraryZVertical|-0.5254371925337958|0.2952862828198035|-0.6346152015768017|0.4837202164402704|-0.3812289834022522|0.8831155300140381|-0.2734435498714447|0|0|0|-1|-1|3
2021-02-10 19:46:50.943 +0000|24925.681557|-0.116790771484375|0.86553955078125|-0.035186767578125|24925.661595|-2.457517920056604|-0.9311821338271563|-1.119796024325937|-1.875411987304688|1.54751455783844|1.064733505249023|0.2267666161060333|-0.434786319732666|0.38629150390625|XArbitraryZVertical|-0.5175383851476751|0.319488449940911|-0.6332874489223518|0.4785688542153484|-0.3497066795825958|0.9000115394592285|-0.2601622939109802|0|0|0|-1|-1|3
2021-02-10 19:46:50.963 +0000|24925.701519|-0.2347259521484375|0.874237060546875|-0.1042938232421875|24925.681557|-2.497763194477625|-0.9395438672930245|-1.155829190599798|-1.493124842643738|1.416508913040161|0.8118374943733215|0.235714465379715|-0.1260669827461243|0.1031618416309357|XArbitraryZVertical|-0.5138021871508235|0.3421163391069425|-0.6302631691118915|0.470884443736926|-0.32546666264534|0.915129542350769|-0.2379274517297745|0|0|0|-1|-1|3
2021-02-10 19:46:50.983 +0000|24925.721482|-0.1546630859375|0.882080078125|-0.027587890625|24925.701519|-2.531320043295969|-0.9395244384919598|-1.182759144446067|-1.252974987030029|1.651130557060242|0.5948119759559631|0.1596690118312836|-0.005640029907226562|0.1196975409984589|XArbitraryZVertical|-0.5077830718537457|0.3612533333244407|-0.6302324134043451|0.4630977518549553|-0.3054514825344086|0.9256535172462463|-0.2233047634363174|0|0|0|-1|-1|3
2021-02-10 19:46:51.003 +0000|24925.741444|-0.16986083984375|0.76287841796875|0.00732421875|24925.721482|-2.562688700472609|-0.9380941050151519|-1.204798949743338|-0.8604479432106018|1.353775024414062|0.4925983548164368|0.06324943900108337|-0.01668363809585571|0.1738433986902237|XArbitraryZVertical|-0.5012359786786561|0.3780879193804685|-0.6313054761087993|0.4552639426105204|-0.2886064350605011|0.9337672591209412|-0.2116240411996841|0|0|0|-1|-1|3
2021-02-10 19:46:51.023 +0000|24925.761406|-0.1338958740234375|0.7207183837890625|0.0788116455078125|24925.741444|-2.580944304526616|-0.9307202495255154|-1.218449799422877|-0.5632764101028442|1.015878200531006|0.1999013423919678|0.11283278465271|-0.07882434129714966|0.1888104677200317|XArbitraryZVertical|-0.4951290658346876|0.389602701718809|-0.6332314812355436|0.449527352789661|-0.2767884731292725|0.9385654926300049|-0.2061138898134232|0|0|0|-1|-1|3
2021-02-10 19:46:51.043 +0000|24925.781368|-0.13232421875|0.7569122314453125|0.2116851806640625|24925.761406|-2.607209346418378|-0.9376135206750303|-1.226550016501452|-0.6763507723808289|0.851679265499115|-0.03387999534606934|0.1556401252746582|-0.1739503741264343|0.2208901792764664|XArbitraryZVertical|-0.4919381313392578|0.3976795478234156|-0.6349918449209361|0.4434333438857023|-0.2720646560192108|0.9413300752639771|-0.1996957063674927|0|0|0|-1|-1|3
2021-02-10 19:46:51.063 +0000|24925.801331|-0.111114501953125|1.012130737304688|0.1631927490234375|24925.781368|-2.64712086934705|-0.9614444619264207|-1.235496582950562|-0.7882072329521179|0.5960046052932739|-0.04221595451235771|0.1237414479255676|-0.2856813669204712|0.3674514293670654|XArbitraryZVertical|-0.4911748342883711|0.4056883849948721|-0.6352687085270879|0.436575143853223|-0.2698290646076202|0.9443117380142212|-0.188328430056572|0|0|0|-1|-1|3
2021-02-10 19:46:51.083 +0000|24925.821293|-0.2098541259765625|0.8399505615234375|-0.02935791015625|24925.801331|-2.655610949671616|-0.9599475838316313|-1.235105583014533|0.7854651808738708|0.4242053329944611|-0.1707735657691956|0.1672644317150116|-0.09768646955490112|0.4003544449806213|XArbitraryZVertical|-0.48898799964072|0.4079445994113294|-0.6375975812506905|0.4335218958985197|-0.2698493003845215|0.9441829919815063|-0.1889438778162003|0|0|0|-1|-1|3
2021-02-10 19:46:51.103 +0000|24925.841255|-0.2125091552734375|0.7033843994140625|0.059356689453125|24925.821293|-2.604490074719355|-0.9031476069029979|-1.217266184385725|1.234565258026123|0.4059190154075623|-0.2155181467533112|0.09136173129081726|0.0770413875579834|0.2122179269790649|XArbitraryZVertical|-0.4816860139848401|0.4010006586075521|-0.6455310788142717|0.436424970177184|-0.2718731760978699|0.9381563663482666|-0.2143541127443314|0|0|0|-1|-1|3
2021-02-10 19:46:51.123 +0000|24925.861217|-0.1255035400390625|0.8089447021484375|-0.1756744384765625|24925.841255|-2.595519136011473|-0.8887378348514875|-1.210022089875128|-0.566954493522644|0.2114857286214828|-0.230669841170311|0.06444507837295532|-0.2672126293182373|0.2463161051273346|XArbitraryZVertical|-0.4789611580875234|0.399164656746807|-0.649174233945057|0.4357023235694562|-0.2740245461463928|0.935623824596405|-0.2225275784730911|0|0|0|-1|-1|3
2021-02-10 19:46:51.143 +0000|24925.88118|-0.440887451171875|1.498291015625|0.46124267578125|24925.861217|-2.649483887025899|-0.9409143935847838|-1.217430627498634|-0.7811432480812073|-0.6509924530982971|-0.4411120414733887|0.08966079354286194|-0.1876182556152344|0.3439816832542419|XArbitraryZVertical|-0.4848247349169981|0.4037604724746425|-0.6460973823833582|0.4295120533267643|-0.2796480059623718|0.9382132887840271|-0.2038449198007584|0|0|0|-1|-1|3
2021-02-10 19:46:51.162 +0000|24925.901142|-0.0527801513671875|0.6294403076171875|0.1273345947265625|24925.88118|-2.674562929978535|-0.9713898847372747|-1.217225404723483|-0.7911590933799744|0.2793169319629669|-0.05681193992495537|0.1786341965198517|0.1849654912948608|0.3335060179233551|XArbitraryZVertical|-0.4896035072920787|0.4032611940893029|-0.6441064678659335|0.4275459345868247|-0.2858881950378418|0.9381422400474548|-0.1953376233577728|0|0|0|-1|-1|3
2021-02-10 19:46:51.183 +0000|24925.921104|-0.385345458984375|1.204544067382812|0.49139404296875|24925.901142|-2.759309825458562|-1.04987292400386|-1.228693984834681|-1.93440854549408|-0.3748895525932312|-0.4636015295982361|-0.1531201004981995|-0.1039320230484009|0.2264961004257202|XArbitraryZVertical|-0.4968273812102263|0.4119277087683083|-0.6393659314398514|0.417958437907208|-0.2909716665744781|0.9420514702796936|-0.1669562309980392|0|0|0|-1|-1|3
2021-02-10 19:46:51.202 +0000|24925.941067|-0.3404541015625|0.949615478515625|0.371368408203125|24925.921104|-2.854677292810246|-1.146772738189579|-1.233585491090649|-1.15403151512146|-0.2005101889371872|-0.4284435510635376|0.06902739405632019|0.06591659784317017|0.5419473648071289|XArbitraryZVertical|-0.5074448752348785|0.4176570258459837|-0.6333762603455095|0.408530145366136|-0.3015561103820801|0.9436811208724976|-0.1361246109008789|0|0|0|-1|-1|3
2021-02-10 19:46:51.222 +0000|24925.961029|-0.3407135009765625|1.043350219726562|0.4155731201171875|24925.941067|-2.929615337590571|-1.222578236967657|-1.234631287900952|-1.240878343582153|-0.3208814859390259|-0.4247412979602814|-0.05603301525115967|0.05182290077209473|0.5347087383270264|XArbitraryZVertical|-0.5155185027613327|0.4218544142736127|-0.6288747384975055|0.4009938234832199|-0.3100711107254028|0.9440266489982605|-0.112559050321579|0|0|0|-1|-1|3
2021-02-10 19:46:51.243 +0000|24925.980991|-0.3551025390625|1.038497924804688|0.361419677734375|24925.961029|-3.011637353224462|-1.307450049048354|-1.235914002456014|-1.384929180145264|-0.3755832612514496|-0.2837929129600525|-0.01836612820625305|0.06896346807479858|0.4451578855514526|XArbitraryZVertical|-0.5244965114646699|0.4267627668935501|-0.6227733683783228|0.3936117881857432|-0.3173272013664246|0.9444490075111389|-0.08555389940738678|0|0|0|-1|-1|3
2021-02-10 19:46:51.262 +0000|24926.000953|-0.383575439453125|1.250885009765625|0.258087158203125|24925.980991|-3.105531544189549|-1.403267521413658|-1.23802906258494|-1.727163434028625|-0.3413932323455811|-0.193445235490799|-0.01014342904090881|0.08835089206695557|0.45014488697052|XArbitraryZVertical|-0.5336053522913768|0.433625078902554|-0.6152144263080098|0.3856756680332156|-0.3220861256122589|0.9451420307159424|-0.05446923896670341|0|0|0|-1|-1|3
2021-02-10 19:46:51.290 +0000|24926.020916|-0.32659912109375|1.102203369140625|0.222015380859375|24926.000953|3.080798302374593|-1.500636362672179|-1.236417518791347|-1.291265487670898|-0.1741412729024887|-0.218040868639946|-0.07560956478118896|0.1636161804199219|0.3007926940917969|XArbitraryZVertical|-0.5425279286156331|0.440636193863878|-0.6078252382703825|0.3768974236718361|-0.327375054359436|0.9446143507957458|-0.0230063833296299|0|0|0|-1|-1|3
2021-02-10 19:46:51.302 +0000|24926.04087741667|-0.355621337890625|1.139358520507812|0.2224578857421875|24926.020916|3.014029890096232|-1.567489567788205|-1.232853797375511|-0.8918142914772034|-0.2083463221788406|-0.2284081876277924|-0.02796748280525208|0.2724272012710571|0.233838677406311|XArbitraryZVertical|-0.5487384937821786|0.4453514274832423|-0.6027540749344749|0.3704533568525938|-0.3315448760986328|0.9434388279914856|-0.001096342923119664|0|0|0|-1|-1|3
2021-02-10 19:46:51.322 +0000|24926.06083941667|-0.3967437744140625|1.00762939453125|0.221405029296875|24926.04087741667|2.968690825265354|-1.614389784746061|-1.227526392980533|-0.6798607110977173|-0.1714206337928772|-0.2667720019817352|0.01238030195236206|0.1760165095329285|0.2054710388183594|XArbitraryZVertical|-0.5539170642239505|0.4477830284836972|-0.599124867175305|0.3656713954195683|-0.3362480998039246|0.941659152507782|0.01466750912368298|0|0|0|-1|-1|3
2021-02-10 19:46:51.342 +0000|24926.08080141667|-0.401947021484375|0.97955322265625|0.2020416259765625|24926.06083941667|2.928700623605113|-1.653669273294252|-1.222285014836692|-0.7311323285102844|-0.001516712829470634|-0.1496434360742569|-0.04308107495307922|0.1339091658592224|0.208730936050415|XArbitraryZVertical|-0.5579120653048375|0.450409179039076|-0.5963459197073913|0.3608837417343839|-0.3403264582157135|0.9398821592330933|0.02826860174536705|0|0|0|-1|-1|3
2021-02-10 19:46:51.362 +0000|24926.10076441667|-0.3614501953125|1.01318359375|0.148651123046875|24926.08080141667|2.883440037260686|-1.69518172869336|-1.219789490739299|-0.8473974466323853|0.1216635853052139|0.05884905532002449|-0.0534358024597168|0.06768691539764404|0.1714982986450195|XArbitraryZVertical|-0.5606214538201851|0.4550088393279333|-0.5932355704839992|0.3560086181432517|-0.3411870300769806|0.9390270113945007|0.04265891760587692|0|0|0|-1|-1|3
2021-02-10 19:46:51.382 +0000|24926.12072641667|-0.4165191650390625|1.105239868164062|0.064666748046875|24926.10076441667|2.834210702546921|-1.738296967050593|-1.219537609618832|-0.7630850076675415|0.1406698822975159|0.1725534200668335|-0.06207239627838135|0.04851686954498291|0.1409997940063477|XArbitraryZVertical|-0.5621626509209221|0.4611457331730988|-0.589872318814623|0.351238339047964|-0.3392642438411713|0.9389403462409973|0.05736446753144264|0|0|0|-1|-1|3
2021-02-10 19:46:51.402 +0000|24926.14068841667|-0.45263671875|1.10638427734375|0.145751953125|24926.12072641667|2.799832179486003|-1.766437637676602|-1.221292008118801|-0.3406407535076141|0.3449278771877289|0.2207139432430267|-0.04071804881095886|0.09947401285171509|0.01998066157102585|XArbitraryZVertical|-0.5620211493971162|0.4662787358970634|-0.5877465788266183|0.3482387649391441|-0.3358993530273438|0.9395425915718079|0.06656726449728012|0|0|0|-1|-1|3
2021-02-10 19:46:51.422 +0000|24926.16065141667|-0.4096832275390625|1.193130493164062|0.180633544921875|24926.14068841667|2.788421817401528|-1.766317071553469|-1.226181391393406|0.02216292545199394|0.7320802211761475|0.3190864026546478|-0.1124962866306305|0.1591818332672119|0.01651977747678757|XArbitraryZVertical|-0.5580248965519228|0.4705581405844341|-0.589151698874874|0.3465305552695425|-0.3313970863819122|0.941205620765686|0.06563349813222885|0|0|0|-1|-1|3
2021-02-10 19:46:51.442 +0000|24926.18061341667|-0.5013885498046875|1.135726928710938|0.1035614013671875|24926.16065141667|2.795079631209391|-1.744947215367188|-1.232727735471439|0.2702746689319611|0.7623980641365051|0.2210389375686646|-0.09995666146278381|0.1773151159286499|0.139477014541626|XArbitraryZVertical|-0.5515531437832789|0.4738388695140464|-0.5930978841891592|0.345688669334602|-0.3266485631465912|0.9433969855308533|0.05746828764677048|0|0|0|-1|-1|3
2021-02-10 19:46:51.462 +0000|24926.20057541667|-0.4747314453125|1.157073974609375|-0.02703857421875|24926.18061341667|2.805980055060612|-1.719745033677799|-1.23666551973673|0.03139201179146767|0.7310456037521362|0.07348641008138657|-0.1561367213726044|0.2323976755142212|0.1261529922485352|XArbitraryZVertical|-0.545607342412904|0.4760736561374085|-0.5976104327984431|0.3442792280355836|-0.3243167400360107|0.9446957111358643|0.04866699501872063|0|0|0|-1|-1|3
2021-02-10 19:46:51.482 +0000|24926.22053741667|-0.3237762451171875|1.219863891601562|-0.079315185546875|24926.20057541667|2.785348738630676|-1.725966554930792|-1.237202226446895|-0.7062782049179077|0.6109974384307861|0.1622618287801743|-0.1658276617527008|0.1694470643997192|-0.02617598325014114|XArbitraryZVertical|-0.5423932217120969|0.480741384944346|-0.599374968808817|0.3397746069055143|-0.3235064148902893|0.9448716044425964|0.05060537159442902|0|0|0|-1|-1|3
2021-02-10 19:46:51.502 +0000|24926.24050041667|-0.25347900390625|1.163238525390625|-0.103363037109375|24926.22053741667|2.721922515586581|-1.775099636111649|-1.238462737108407|-1.229166388511658|0.4184050261974335|0.3064998686313629|-0.08377930521965027|0.2462295293807983|-0.1318955421447754|XArbitraryZVertical|-0.5413537166005267|0.489930364262212|-0.5965783189999295|0.3331647197616466|-0.3194647431373596|0.9452835917472839|0.06619121879339218|0|0|0|-1|-1|3
2021-02-10 19:46:51.523 +0000|24926.26046241667|-0.2597808837890625|1.015167236328125|-0.1474456787109375|24926.26046241667|2.607184776740056|-1.878565558657163|-1.238604075023033|-0.3677873909473419|-0.06034647300839424|0.1018346101045609|0.07032880187034607|0.1469247341156006|-0.2097073942422867|XArbitraryZVertical|-0.5434314744244778|0.5040614028968383|-0.5873711896667821|0.3249603783765146|-0.3107920289039612|0.9453296661376953|0.09879133105278015|0|0|0|-1|-1|3
2021-02-10 19:46:51.542 +0000|24926.28042441667|-0.23077392578125|0.9207000732421875|-0.2021331787109375|24926.26046241667|2.607184776740056|-1.878565558657163|-1.238604075023033|-0.3677873909473419|-0.06034647300839424|0.1018346101045609|0.07032880187034607|0.1469247341156006|-0.2097073942422867|XArbitraryZVertical|-0.5434314744244778|0.5040614028968383|-0.5873711896667821|0.3249603783765146|-0.3107920289039612|0.9453296661376953|0.09879133105278015|0|0|0|-1|-1|3
2021-02-10 19:46:51.562 +0000|24926.30038641667|-0.2247772216796875|0.9341888427734375|-0.2161102294921875|24926.28042441667|2.598352925868666|-1.889215315503636|-1.238032698787092|-0.007179017178714275|-0.1836254745721817|-0.04697040468454361|0.06250926852226257|0.01677078008651733|-0.2870486974716187|XArbitraryZVertical|-0.5444938675190237|0.5046373029550116|-0.5859535527825149|0.3248476957711738|-0.3102357089519501|0.9451432228088379|0.1022647619247437|0|0|0|-1|-1|3
2021-02-10 19:46:51.582 +0000|24926.32034941667|-0.181549072265625|0.9254302978515625|-0.1838531494140625|24926.30038641667|2.600409291892179|-1.892296815127125|-1.236973594759158|0.0002578438725322485|-0.2959212064743042|-0.03612823411822319|0.08039933443069458|-0.03334367275238037|-0.3279778957366943|XArbitraryZVertical|-0.5462216272615238|0.5033985397016488|-0.5848580789631653|0.325841454242971|-0.3108680248260498|0.9447966814041138|0.1035363152623177|0|0|0|-1|-1|3
2021-02-10 19:46:51.602 +0000|24926.34031141667|-0.128936767578125|0.876983642578125|-0.194000244140625|24926.32034941667|2.600935434340384|-1.898057154703684|-1.237922059674692|0.07971478998661041|-0.30922731757164|0.1289240121841431|0.09207221865653992|-0.012245774269104|-0.2938039302825928|XArbitraryZVertical|-0.5477604402554707|0.5024710915447695|-0.5831260871676995|0.3277884101548753|-0.3094184100627899|0.9451070427894592|0.1050373986363411|0|0|0|-1|-1|3
2021-02-10 19:46:51.622 +0000|24926.36027341667|-0.0977325439453125|0.8332672119140625|-0.1940460205078125|24926.34031141667|2.607082244618255|-1.898576938856695|-1.242603452619268|0.2671302258968353|-0.330927848815918|0.2355370074510574|0.1554979681968689|-0.04103261232376099|-0.298337459564209|XArbitraryZVertical|-0.5480938685603608|0.501477243893765|-0.5816181492826467|0.3314120744868114|-0.3051714599132538|0.9466263651847839|0.1037726327776909|0|0|0|-1|-1|3
2021-02-10 19:46:51.642 +0000|24926.38023641667|-0.1236572265625|0.8716888427734375|-0.1248931884765625|24926.36027341667|2.627007506536321|-1.886679886333875|-1.250457070683111|0.5719862580299377|-0.3802447617053986|0.2948868870735168|0.1824410557746887|-0.09639143943786621|-0.2926919460296631|XArbitraryZVertical|-0.5473421943739569|0.4993270662591114|-0.5809225631307318|0.337072429532597|-0.2993080914020538|0.9491286277770996|0.09782199561595917|0|0|0|-1|-1|3
2021-02-10 19:46:51.662 +0000|24926.40019841667|-0.1251220703125|0.7721710205078125|-0.04364013671875|24926.38023641667|2.665579005253235|-1.858138251140816|-1.261047127637106|0.8464239239692688|-0.4247388243675232|0.3657304048538208|0.1954742670059204|-0.120302677154541|-0.261527419090271|XArbitraryZVertical|-0.5455911887856004|0.495503547975125|-0.5812024070116542|0.3449783895909561|-0.2923218011856079|0.9524100422859192|0.0863870233297348|0|0|0|-1|-1|3
2021-02-10 19:46:51.682 +0000|24926.42016041667|-0.0963592529296875|0.6590423583984375|-0.039581298828125|24926.42016041667|2.736124546868059|-1.808697312731993|-1.283390910424258|0.1519229412078857|-0.5115790963172913|0.4068264663219452|0.1628557145595551|-0.2726728916168213|-0.1012564972043037|XArbitraryZVertical|-0.5422690643309966|0.4892293553690011|-0.5798142746292909|0.3611290726331773|-0.2754808068275452|0.9589825868606567|0.06680220365524292|0|0|0|-1|-1|3
2021-02-10 19:46:51.702 +0000|24926.44012241667|-0.13604736328125|0.7708587646484375|-0.038543701171875|24926.42016041667|2.736124546868059|-1.808697312731993|-1.283390910424258|0.1519229412078857|-0.5115790963172913|0.4068264663219452|0.1628557145595551|-0.2726728916168213|-0.1012564972043037|XArbitraryZVertical|-0.5422690643309966|0.4892293553690011|-0.5798142746292909|0.3611290726331773|-0.2754808068275452|0.9589825868606567|0.06680220365524292|0|0|0|-1|-1|3
2021-02-10 19:46:51.722 +0000|24926.46008541667|-0.16802978515625|0.85089111328125|-0.002197265625|24926.44012241667|2.729558212199973|-1.825968960122454|-1.291239988856475|-0.04356984794139862|-0.576417088508606|0.4036312997341156|0.1577873229980469|-0.2408868670463562|-0.1144934892654419|XArbitraryZVertical|-0.5434401165517992|0.4893841190631678|-0.5754049614867026|0.3661763640124346|-0.2669944763183594|0.9611779451370239|0.06964795291423798|0|0|0|-1|-1|3
2021-02-10 19:46:51.742 +0000|24926.48004741667|-0.158843994140625|0.792144775390625|0.02435302734375|24926.46008541667|2.719847928946405|-1.845978776558132|-1.298525014441586|-0.03532418608665466|-0.4722822606563568|0.3678873479366302|0.1081970036029816|-0.1452000737190247|-0.09672249108552933|XArbitraryZVertical|-0.5447250732422438|0.4897042856237086|-0.5709222750230021|0.3708259732042448|-0.2588012218475342|0.9631626009941101|0.07307138293981552|0|0|0|-1|-1|3
2021-02-10 19:46:51.761 +0000|24926.50000941667|-0.16650390625|0.810211181640625|0.0505523681640625|24926.48004741667|2.709397850446428|-1.865011040897208|-1.305326607125148|-0.05808284506201744|-0.4437306225299835|0.3683772683143616|0.08127370476722717|-0.1431158185005188|-0.06939864903688431|XArbitraryZVertical|-0.5456234938442561|0.4902407872094126|-0.5669337706745261|0.3748933642309236|-0.2510887384414673|0.9649693965911865|0.07608205080032349|0|0|0|-1|-1|3
2021-02-10 19:46:51.795 +0000|24926.51997141667|-0.1844329833984375|0.8739776611328125|0.0201873779296875|24926.50000941667|2.694529522531671|-1.88908161795529|-1.311929615705603|-0.1536578685045242|-0.5311863422393799|0.3679801821708679|0.08297099173069|-0.1751160025596619|-0.04662956297397614|XArbitraryZVertical|-0.5468531970307615|0.4909228731345457|-0.5624631243514547|0.3789213267791818|-0.2431272268295288|0.9666807055473328|0.08010737597942352|0|0|0|-1|-1|3
2021-02-10 19:46:51.808 +0000|24926.53993441667|-0.2462921142578125|0.89862060546875|0.0518646240234375|24926.51997141667|2.676413710746642|-1.918767891522106|-1.317415759821959|-0.06741488724946976|-0.6775740385055542|0.2861114144325256|0.05494345724582672|-0.1488568782806396|-0.04301358759403229|XArbitraryZVertical|-0.549100589860342|0.4911496391965038|-0.5572331744303878|0.3830817010633868|-0.2356532514095306|0.9680705070495605|0.08547884970903397|0|0|0|-1|-1|3
2021-02-10 19:46:51.821 +0000|24926.55989641667|-0.3155364990234375|0.7908782958984375|0.123260498046875|24926.53993441667|2.669964334485277|-1.938782318504995|-1.320762603509328|-0.003868624102324247|-0.6828714609146118|0.08916932344436646|0.002691656351089478|-0.05484163761138916|-0.0674666166305542|XArbitraryZVertical|-0.5520781992045719|0.4896076970819283|-0.5526495772257423|0.3873917724916648|-0.2308715730905533|0.9689040780067444|0.08901207149028778|0|0|0|-1|-1|3
2021-02-10 19:46:51.841 +0000|24926.57985841667|-0.2792816162109375|0.7985992431640625|0.0972137451171875|24926.55989641667|2.663416087216956|-1.957077757584276|-1.320255439000918|-0.1778794676065445|-0.5537129640579224|-0.03250748664140701|-0.03823882341384888|-0.1257456541061401|0.003197431564331055|XArbitraryZVertical|-0.5556680078779774|0.4877868945582342|-0.5489013390672017|0.3898773160010382|-0.2296597361564636|0.9687784910202026|0.09340597689151764|0|0|0|-1|-1|3
2021-02-10 19:46:51.861 +0000|24926.59982141667|-0.3812408447265625|0.980499267578125|0.092620849609375|24926.57985841667|2.650508387278606|-1.982785371743474|-1.317061663330341|-0.1803097724914551|-0.809637188911438|-0.1117789670825005|-0.07416762411594391|-0.2083078026771545|0.01557229459285736|XArbitraryZVertical|-0.5605121962383519|0.4858851786891272|-0.5445214108408424|0.3914561834832239|-0.2300162613391876|0.9679816961288452|0.1005166545510292|0|0|0|-1|-1|3
2021-02-10 19:46:51.881 +0000|24926.61978341667|-0.4197540283203125|0.85107421875|0.08782958984375|24926.59982141667|2.638989893318474|-2.010181447081554|-1.312682735321615|-0.2937622666358948|-0.7943868041038513|-0.1770158410072327|-0.1077801138162613|-0.02212542295455933|-0.0185396745800972|XArbitraryZVertical|-0.5664666998586518|0.4831215498930231|-0.5394073321714591|0.393381115564046|-0.2310107946395874|0.9668732285499573|0.1085819080471992|0|0|0|-1|-1|3
2021-02-10 19:46:51.901 +0000|24926.63974541667|-0.456878662109375|0.9356231689453125|0.1055908203125|24926.61978341667|2.615759845881885|-2.045920018074871|-1.304301326726786|-0.5983326435089111|-0.5754549503326416|-0.2975401282310486|-0.1592815369367599|-0.07257962226867676|-0.02934408932924271|XArbitraryZVertical|-0.5729993089166764|0.4815668521508009|-0.5343771172083669|0.3926909236684333|-0.2341815680265427|0.9646998643875122|0.1204696819186211|0|0|0|-1|-1|3
2021-02-10 19:46:51.921 +0000|24926.65970741667|-0.50177001953125|0.9630889892578125|0.2074432373046875|24926.63974541667|2.583551935995563|-2.086957822839172|-1.292282714662818|-0.7692070603370667|-0.3884388506412506|-0.3203625082969666|-0.1777453422546387|-0.02459073066711426|-0.05518351495265961|XArbitraryZVertical|-0.5798248748043612|0.4812978264479033|-0.5295400212760042|0.3895419507720904|-0.2391095608472824|0.9614651203155518|0.1356889605522156|0|0|0|-1|-1|3
2021-02-10 19:46:51.941 +0000|24926.67967041667|-0.6123199462890625|1.022567749023438|0.3108062744140625|24926.65970741667|2.547550990714051|-2.127489355734078|-1.277580371609792|-0.7798576354980469|-0.1811533719301224|-0.4131215810775757|-0.2627429962158203|-0.07691794633865356|-0.0127805769443512|XArbitraryZVertical|-0.5863399601336933|0.4822498613674444|-0.5253223368110423|0.3842873543894055|-0.2453899085521698|0.9573193192481995|0.1527189612388611|0|0|0|-1|-1|3
2021-02-10 19:46:51.961 +0000|24926.69963241667|-0.6594390869140625|1.065582275390625|0.5092315673828125|24926.67967041667|2.525107202662773|-2.149084119422679|-1.262273667280814|-0.6346404552459717|0.1318979561328888|-0.5330685973167419|-0.3171490728855133|0.07881760597229004|0.08781133592128754|XArbitraryZVertical|-0.5912696216794773|0.4831011047768023|-0.5237146205382417|0.3778047831519954|-0.2542772889137268|0.9527832269668579|0.165972888469696|0|0|0|-1|-1|3
2021-02-10 19:46:51.981 +0000|24926.71959441667|-0.7094268798828125|1.10052490234375|0.5610809326171875|24926.69963241667|2.51000604715371|-2.157922705475969|-1.247107595810847|-0.586608350276947|0.4194642007350922|-0.4679036140441895|-0.3576197326183319|0.06990635395050049|0.2543425559997559|XArbitraryZVertical|-0.5945563409399883|0.4843577789157783|-0.5242681091015609|0.3701936277787714|-0.2648015320301056|0.9480686187744141|0.1761994063854218|0|0|0|-1|-1|3
2021-02-10 19:46:52.001 +0000|24926.73955641667|-0.644195556640625|0.9371795654296875|0.5846710205078125|24926.71959441667|2.49558673866884|-2.160710923327418|-1.234049283142767|-0.5235357284545898|0.6609163880348206|-0.3729947507381439|-0.4259268641471863|0.1489540338516235|0.3638906478881836|XArbitraryZVertical|-0.5957518909665975|0.4868098837550677|-0.526306230216932|0.3620738361271812|-0.2745736241340637|0.9438344836235046|0.1838083565235138|0|0|0|-1|-1|3
2021-02-10 19:46:52.021 +0000|24926.75951941667|-0.5804443359375|0.9226531982421875|0.4626617431640625|24926.73955641667|2.473717578509521|-2.16729718004586|-1.220393504582893|-0.9172099232673645|0.7325377464294434|-0.349834144115448|-0.3955557346343994|0.1158953905105591|0.3963062763214111|XArbitraryZVertical|-0.5962751006200446|0.4907889998885393|-0.5284087243789841|0.3526561234955288|-0.2839944362640381|0.9392344951629639|0.1928356736898422|0|0|0|-1|-1|3
2021-02-10 19:46:52.041 +0000|24926.77948141667|-0.494293212890625|0.858428955078125|0.397186279296875|24926.75951941667|2.435462368280013|-2.187419758969533|-1.203884373501594|-1.012883067131042|0.8280735015869141|-0.2438258528709412|-0.3339797258377075|-0.06771707534790039|0.3250510394573212|XArbitraryZVertical|-0.5971291755796935|0.4971537321640022|-0.5290683689275183|0.3411179457666498|-0.2926681935787201|0.9334396123886108|0.2074501663446426|0|0|0|-1|-1|3
2021-02-10 19:46:52.061 +0000|24926.79944341667|-0.395599365234375|0.804779052734375|0.3079986572265625|24926.77948141667|2.40037572731606|-2.202781648898447|-1.190579483896771|-0.8409287333488464|0.9007973670959473|-0.09051335602998734|-0.2343714535236359|-0.00287926197052002|0.212294340133667|XArbitraryZVertical|-0.5964242911199256|0.5038827084566946|-0.530242043992493|0.3304900501327095|-0.2994420230388641|0.9285841584205627|0.2192394435405731|0|0|0|-1|-1|3
2021-02-10 19:46:52.081 +0000|24926.81940641667|-0.35009765625|0.7842559814453125|0.2412109375|24926.79944341667|2.370394949964503|-2.212591814222608|-1.180650755905944|-0.5992483496665955|0.883105456829071|-0.02797860465943813|-0.1410163938999176|-0.1060824394226074|0.1231098175048828|XArbitraryZVertical|-0.5944132901411762|0.510401846662409|-0.5320085469002314|0.3211380216997921|-0.3046470284461975|0.9248536825180054|0.2276744097471237|0|0|0|-1|-1|3
2021-02-10 19:46:52.101 +0000|24926.83936841667|-0.30999755859375|0.766265869140625|0.2361602783203125|24926.81940641667|2.355963071913955|-2.208742864448495|-1.17666335483283|-0.0689070075750351|0.8440849184989929|0.04246493428945541|-0.05292326211929321|-0.1466728448867798|0.05562245845794678|XArbitraryZVertical|-0.590885112647993|0.5149777544272536|-0.5353415195073083|0.3147413107792482|-0.3084811270236969|0.9233298301696777|0.2286946028470993|0|0|0|-1|-1|3
2021-02-10 19:46:52.121 +0000|24926.85933041667|-0.300628662109375|0.8068695068359375|0.2424163818359375|24926.83936841667|2.360635816755306|-2.187901465530347|-1.178896742648935|0.3180045485496521|0.8012793064117432|0.04502218961715698|-0.01337710022926331|-0.1429656744003296|0.01052954792976379|XArbitraryZVertical|-0.5858118636934467|0.5170452009282964|-0.5407964174851446|0.3114931854532397|-0.3114978075027466|0.9241852164268494|0.2210225611925125|0|0|0|-1|-1|3
2021-02-10 19:46:52.141 +0000|24926.87929241667|-0.2818756103515625|0.8091888427734375|0.30865478515625|24926.85933041667|2.381229131648607|-2.153313057806799|-1.185520092837817|0.7086134552955627|0.7599838972091675|0.0525367446243763|0.01104065775871277|-0.1556527614593506|0.02633181214332581|XArbitraryZVertical|-0.579727243225395|0.5170004378030615|-0.5477878040030053|0.3107337030931419|-0.3138360977172852|0.9266946315765381|0.2067462652921677|0|0|0|-1|-1|3
2021-02-10 19:46:52.161 +0000|24926.89925541667|-0.2874603271484375|0.7783966064453125|0.3462371826171875|24926.87929241667|2.415461551324433|-2.106026402935764|-1.195097478590621|0.7910378575325012|0.7942073941230774|0.0932065024971962|0.01665881276130676|-0.08872926235198975|0.09528017044067383|XArbitraryZVertical|-0.5726260656309671|0.5154336105876599|-0.5561316199230062|0.311681208379936|-0.3156089782714844|0.93025141954422|0.1871448308229446|0|0|0|-1|-1|3
2021-02-10 19:46:52.181 +0000|24926.91921741667|-0.3201904296875|0.84893798828125|0.366912841796875|24926.91921741667|2.457702026442071|-2.034763974191755|-1.206227748238009|0.2877688407897949|0.8484293222427368|0.02510245516896248|0.01669856905937195|-0.1076025366783142|0.193625882267952|XArbitraryZVertical|-0.5601117733913806|0.5158021459876819|-0.5696118662279193|0.3094593260807487|-0.3188530504703522|0.9342776536941528|0.1595541089773178|0|0|0|-1|-1|3
2021-02-10 19:46:52.201 +0000|24926.93917941667|-0.3369293212890625|0.907379150390625|0.3898773193359375|24926.91921741667|2.457702026442071|-2.034763974191755|-1.206227748238009|0.2877688407897949|0.8484293222427368|0.02510245516896248|0.01669856905937195|-0.1076025366783142|0.193625882267952|XArbitraryZVertical|-0.5601117733913806|0.5158021459876819|-0.5696118662279193|0.3094593260807487|-0.3188530504703522|0.9342776536941528|0.1595541089773178|0|0|0|-1|-1|3
2021-02-10 19:46:52.221 +0000|24926.95914141667|-0.342559814453125|1.006271362304688|0.385467529296875|24926.93917941667|2.470959985494386|-2.005046044682083|-1.208460833375075|0.2415042221546173|0.9027032852172852|-0.03343772888183594|-0.001926183700561523|-0.04691851139068604|0.2349934577941895|XArbitraryZVertical|-0.5543563493290583|0.5169668801768589|-0.5757913182805687|0.3064287577450511|-0.3215601146221161|0.9350715279579163|0.1491314321756363|0|0|0|-1|-1|3
2021-02-10 19:46:52.241 +0000|24926.97910441667|-0.3638153076171875|1.1072998046875|0.2722930908203125|24926.95914141667|2.486857484668062|-1.97213661241775|-1.209163930216902|0.3489172160625458|0.8760759234428406|-0.1309176683425903|-0.02201429009437561|-0.008364439010620117|0.2632911205291748|XArbitraryZVertical|-0.5487296713170476|0.5176895266982475|-0.5824216794530865|0.3027841721977256|-0.3256877362728119|0.9353204965591431|0.1382133960723877|0|0|0|-1|-1|3
2021-02-10 19:46:52.261 +0000|24926.99906641667|-0.2881927490234375|0.972412109375|0.157958984375|24926.97910441667|2.500305022290717|-1.944118543447438|-1.207914999723861|0.4426842331886292|0.8233738541603088|-0.1373371481895447|-0.02829128503799438|0.1565831303596497|0.224954828619957|XArbitraryZVertical|-0.5443831221834813|0.5180516843310491|-0.5881071281563065|0.2989972805811505|-0.3305191099643707|0.9348779320716858|0.1294610649347305|0|0|0|-1|-1|3
2021-02-10 19:46:52.297 +0000|24927.01902841667|-0.18060302734375|0.9699859619140625|-0.0149993896484375|24926.99906641667|2.518397521909456|-1.911265235295114|-1.208191648065757|0.1101688519120216|0.7687610983848572|-0.07326610386371613|0.001097321510314941|0.1157744526863098|0.09654830396175385|XArbitraryZVertical|-0.5392765542682129|0.5180780294377716|-0.5943032098736274|0.2959383404883796|-0.3343492746353149|0.9349761009216309|0.1184480935335159|0|0|0|-1|-1|3
2021-02-10 19:46:52.309 +0000|24927.03899125|-0.1248016357421875|0.928741455078125|-0.0841522216796875|24927.01902841667|2.515700340223992|-1.899768672242103|-1.206558084770653|-0.2173782140016556|0.652933657169342|-0.05044787377119064|0.1008060276508331|0.01959925889968872|-0.057121641933918|XArbitraryZVertical|-0.5356292271052088|0.5202367305946908|-0.597876210383815|0.2915459550191609|-0.3371341228485107|0.9343953728675842|0.1150898486375809|0|0|0|-1|-1|3
2021-02-10 19:46:52.320 +0000|24927.05895425|-0.1312713623046875|0.8929901123046875|-0.1091461181640625|24927.03899125|2.503257437936936|-1.899882583099816|-1.203963903284685|-0.2172679007053375|0.4887277185916901|-0.06208482012152672|0.1959052681922913|0.005725622177124023|-0.1725977510213852|XArbitraryZVertical|-0.5331792379372718|0.5231401321524787|-0.5997817113390279|0.2868907130380244|-0.3394142091274261|0.9334681034088135|0.1159113943576813|0|0|0|-1|-1|3
2021-02-10 19:46:52.341 +0000|24927.07891625|-0.1206207275390625|0.855072021484375|-0.266998291015625|24927.05895425|2.497910126760048|-1.895222021997045|-1.201547189007939|-0.04072096571326256|0.4369708299636841|-0.1066174879670143|0.2074439525604248|0.01925981044769287|-0.2205156087875366|XArbitraryZVertical|-0.5310883667554555|0.5248510236567633|-0.6019065573641357|0.2831695056744319|-0.3420875370502472|0.9325985908508301|0.1150469034910202|0|0|0|-1|-1|3
2021-02-10 19:46:52.360 +0000|24927.09887825|-0.226165771484375|0.723419189453125|-0.35943603515625|24927.07891625|2.507539503469812|-1.881554162015067|-1.199486768543544|0.3534228205680847|0.04747484996914864|-0.1840662956237793|0.2493569254875183|-0.07610970735549927|-0.2693800926208496|XArbitraryZVertical|-0.5300956515331227|0.523901342807761|-0.6042804315363786|0.2817287124806082|-0.3454567492008209|0.9318529963493347|0.1109480336308479|0|0|0|-1|-1|3
2021-02-10 19:46:52.380 +0000|24927.11884125|-0.2408905029296875|0.6702423095703125|-0.3970947265625|24927.09887825|2.531888498516765|-1.858895853511192|-1.197901524891486|0.3172063827514648|-0.005102712661027908|-0.257818192243576|0.1591582596302032|-0.115465521812439|-0.4305082559585571|XArbitraryZVertical|-0.5300527959197472|0.5203847285016204|-0.6069424345086991|0.2826034405870816|-0.3492980301380157|0.9312766194343567|0.1035124659538269|0|0|0|-1|-1|3
2021-02-10 19:46:52.400 +0000|24927.13880325|-0.194549560546875|0.8746185302734375|-0.28668212890625|24927.11884125|2.547069051502037|-1.845055689861519|-1.193028796099532|0.1317575871944427|-0.01502346713095903|-0.3130114078521729|0.1301462352275848|-0.2758345603942871|-0.5113644599914551|XArbitraryZVertical|-0.5311907082497288|0.517478942503156|-0.6087817741399437|0.2818450014399265|-0.3550607264041901|0.9294903874397278|0.09989605098962784|0|0|0|-1|-1|3
2021-02-10 19:46:52.420 +0000|24927.15876525|-0.288787841796875|0.6696624755859375|-0.173431396484375|24927.13880325|2.565737199123577|-1.82906455232136|-1.190481440024834|0.4610184133052826|-0.06340356916189194|-0.1142279133200645|0.1279745995998383|-0.172322154045105|-0.4503247737884521|XArbitraryZVertical|-0.5318599492681421|0.5143249032310557|-0.61057193996243|0.2824832779094815|-0.3589011430740356|0.9285477995872498|0.09481022506952286|0|0|0|-1|-1|3
2021-02-10 19:46:52.440 +0000|24927.17872725|-0.2596893310546875|0.5322265625|-0.168182373046875|24927.15876525|2.584735334303334|-1.810716156764281|-1.191132509770704|0.0183157566934824|0.1697140038013458|-0.01123770885169506|0.1144331693649292|-0.1407033801078796|-0.333655834197998|XArbitraryZVertical|-0.5309385211890362|0.5119932888589165|-0.6127093029065803|0.2838211638410133|-0.3599928915500641|0.9287892580032349|0.08806568384170532|0|0|0|-1|-1|3
2021-02-10 19:46:52.460 +0000|24927.19869025|-0.3555755615234375|0.66790771484375|-0.0620574951171875|24927.17872725|2.570247333766086|-1.819279476849514|-1.190178697833389|-0.4792228043079376|0.3437519073486328|0.08867566287517548|0.09625980257987976|-0.3888998031616211|-0.2520380020141602|XArbitraryZVertical|-0.530113890941744|0.5144519206666165|-0.6125560594082309|0.2812358719304628|-0.3600842952728271|0.9284353852272034|0.09136303514242172|0|0|0|-1|-1|3
2021-02-10 19:46:52.480 +0000|24927.21865225|-0.4830474853515625|0.723663330078125|-0.003173828125|24927.19869025|2.538541104019321|-1.839945408313412|-1.190558360553964|-0.5750336647033691|0.5401374101638794|0.2412096410989761|0.03487282991409302|-0.3382595777511597|-0.2352109998464584|XArbitraryZVertical|-0.5281296523167794|0.5200234644956008|-0.61148728864515|0.2770161311500482|-0.3577793538570404|0.9285763502120972|0.09869066625833511|0|0|0|-1|-1|3
2021-02-10 19:46:52.500 +0000|24927.23861425|-0.5389862060546875|0.7531585693359375|0.0381927490234375|24927.21865225|2.505890017826559|-1.855139455790363|-1.192594811477265|-0.6144500970840454|1.037144541740417|0.2483045607805252|-0.03563779592514038|-0.1928954124450684|-0.1329880952835083|XArbitraryZVertical|-0.5236418995332572|0.5268694151521151|-0.6118482545770315|0.2717524745891428|-0.3544226288795471|0.9293302297592163|0.1035844385623932|0|0|0|-1|-1|3
2021-02-10 19:46:52.520 +0000|24927.25857625|-0.5660247802734375|1.0672607421875|0.1718902587890625|24927.23861425|2.460450703433233|-1.87168794670839|-1.191224059050123|-1.015372633934021|1.490243554115295|0.1089970842003822|-0.1933035552501678|-0.2455804944038391|-0.09806346893310547|XArbitraryZVertical|-0.517036572656393|0.536264417757395|-0.6136729318327728|0.2617235458921879|-0.3538766503334045|0.9288232326507568|0.1098126843571663|0|0|0|-1|-1|3
2021-02-10 19:46:52.540 +0000|24927.27853925|-0.509979248046875|1.320297241210938|0.378692626953125|24927.25857625|2.40570070948808|-1.891076620644338|-1.186170307457453|-1.036314487457275|1.654159188270569|0.07082005590200424|-0.1997455656528473|-0.01627898216247559|-0.03043697774410248|XArbitraryZVertical|-0.5096683659670762|0.5470856997099939|-0.6158718070748748|0.2482687955552757|-0.3561321496963501|0.9269388318061829|0.1181292086839676|0|0|0|-1|-1|3
2021-02-10 19:46:52.560 +0000|24927.29850125|-0.395050048828125|1.36700439453125|0.3282623291015625|24927.27853925|2.351534466931942|-1.906121583194062|-1.180036966081736|-1.096186876296997|1.830645084381104|0.03551958501338959|-0.2129099667072296|0.2886061072349548|0.1486601829528809|XArbitraryZVertical|-0.5011883538986416|0.5581050478262581|-0.6187457645583658|0.2334150646280892|-0.3596760928630829|0.9246200919151306|0.1253420263528824|0|0|0|-1|-1|3
2021-02-10 19:46:52.580 +0000|24927.31846325|-0.2440338134765625|1.390975952148438|0.3700714111328125|24927.29850125|2.294249142786788|-1.921267472102443|-1.173382825912635|-1.233656644821167|1.91144597530365|0.1092285141348839|-0.06738561391830444|0.4433980584144592|0.2239726781845093|XArbitraryZVertical|-0.4917512700686142|0.5697569799678793|-0.6215180365655211|0.2174236002415383|-0.3635073304176331|0.9220651388168335|0.1328846514225006|0|0|0|-1|-1|3
2021-02-10 19:46:52.600 +0000|24927.33842625|-0.1746368408203125|1.487762451171875|0.4979400634765625|24927.31846325|2.226841113064583|-1.944900311015099|-1.167479780386542|-1.366053938865662|1.894270896911621|0.245196744799614|0.0253143310546875|0.4426775574684143|0.2150812149047852|XArbitraryZVertical|-0.4814865458946558|0.5829946340201201|-0.6227936360203638|0.2010375083393328|-0.365325927734375|0.9197643995285034|0.1434240788221359|0|0|0|-1|-1|3
2021-02-10 19:46:52.621 +0000|24927.35838825|-0.111053466796875|1.417129516601562|0.5417327880859375|24927.33842625|2.164965909348826|-1.964349741659213|-1.163667684849899|-1.002155423164368|1.84517502784729|0.2841974198818207|0.1810103952884674|0.547741711139679|0.2800548076629639|XArbitraryZVertical|-0.4704996816662734|0.5954432418701393|-0.6240731694152575|0.1860376267608881|-0.365702748298645|0.9182615876197815|0.1518452167510986|0|0|0|-1|-1|3
2021-02-10 19:46:52.641 +0000|24927.37835025|0.0600433349609375|1.404510498046875|0.363067626953125|24927.35838825|2.120724601102385|-1.969327990706518|-1.162418953409234|-0.7072581648826599|1.654133200645447|0.2642963230609894|0.2349259853363037|0.5523415803909302|0.3808491230010986|XArbitraryZVertical|-0.4591661569037522|0.6051618379525924|-0.6268486601614142|0.1732233879731852|-0.3659990131855011|0.9177663922309875|0.1541088223457336|0|0|0|-1|-1|3
2021-02-10 19:46:52.660 +0000|24927.39831225|0.2891082763671875|1.395416259765625|0.487579345703125|24927.37835025|2.086952690457053|-1.972159292996622|-1.16396602568717|-0.5472196936607361|1.184878945350647|0.4005566835403442|0.3318133652210236|0.5379037261009216|0.3030216693878174|XArbitraryZVertical|-0.4492877006694183|0.6127277529114971|-0.6291165576969797|0.1640656259273919|-0.3642535507678986|0.9183796644210815|0.1545894742012024|0|0|0|-1|-1|3
2021-02-10 19:46:52.680 +0000|24927.41827525|0.2977142333984375|1.813262939453125|0.81243896484375|24927.39831225|2.045674360048401|-1.991053488782913|-1.167094161794616|-0.7020806670188904|0.7713338732719421|0.5319705009460449|0.5392923355102539|0.3941687345504761|0.2096021324396133|XArbitraryZVertical|-0.44151453989946|0.6206451566019229|-0.6283874144630059|0.1580942088825276|-0.3586435616016388|0.9196130037307739|0.1602710038423538|0|0|0|-1|-1|3
2021-02-10 19:46:52.700 +0000|24927.43823725|0.1722869873046875|2.022537231445312|0.93487548828125|24927.41827525|2.006516330733752|-2.014180744285492|-1.172603773652705|-0.5426296591758728|0.4990876615047455|0.5655277967453003|0.6129088401794434|0.7674456834793091|0.4660090208053589|XArbitraryZVertical|-0.4348071697120106|0.6277862695587351|-0.626714372048656|0.1551009229717468|-0.3502593338489532|0.9217633605003357|0.1663457453250885|0|0|0|-1|-1|3
2021-02-10 19:46:52.721 +0000|24927.45819925|0.0880126953125|1.98187255859375|1.0933837890625|24927.43823725|1.964487595515985|-2.046510466668949|-1.177206046013608|-0.7616292834281921|0.1532487422227859|0.621603786945343|0.6464507579803467|0.9701079726219177|0.747688889503479|XArbitraryZVertical|-0.4301861109681876|0.6346319819883723|-0.6232947942804556|0.1539014090099589|-0.3409240245819092|0.9235380887985229|0.1756356805562973|0|0|0|-1|-1|3
2021-02-10 19:46:52.741 +0000|24927.47816125|0.108856201171875|1.809677124023438|1.27117919921875|24927.45819925|1.900708304537314|-2.1058131026577|-1.180975701249434|-1.160845994949341|-0.18956059217453|0.8848667144775391|0.4442278444766998|1.02930736541748|0.7959589958190918|XArbitraryZVertical|-0.4269755959176088|0.6438712381626028|-0.6158310414035831|0.1545117005205223|-0.326918363571167|0.9249772429466248|0.1937566548585892|0|0|0|-1|-1|3
2021-02-10 19:46:52.760 +0000|24927.49812425|0.1659088134765625|1.733505249023438|1.22552490234375|24927.47816125|1.819307088492282|-2.190672502321213|-1.185539461407889|-0.9642144441604614|-0.8263818621635437|1.114228963851929|0.3738428056240082|0.9585671424865723|0.9294068813323975|XArbitraryZVertical|-0.4250042612264356|0.6546205781525256|-0.6046379451513835|0.1589219965824792|-0.3058801889419556|0.9267019629478455|0.2183134406805038|0|0|0|-1|-1|3
2021-02-10 19:46:52.780 +0000|24927.51808625|0.255645751953125|1.368820190429688|0.7667236328125|24927.49812425|1.771070287337672|-2.261125630678378|-1.201267706920794|0.5104095339775085|-1.744605422019958|1.159093379974365|0.4397651553153992|0.8293278217315674|1.104891061782837|XArbitraryZVertical|-0.425414042738363|0.6588017253457148|-0.5957756883593434|0.173362398402005|-0.2784797847270966|0.9324976801872253|0.2299936413764954|0|0|0|-1|-1|3
2021-02-10 19:46:52.808 +0000|24927.53804825|-0.0625152587890625|1.901947021484375|0.9193267822265625|24927.51808625|1.758174367941599|-2.316094150300392|-1.230922760298929|0.7850897908210754|-2.471243858337402|1.431707739830017|0.4728315472602844|0.6069467067718506|0.7898584604263306|XArbitraryZVertical|-0.4283115433735684|0.6554332297124461|-0.5895758516524598|0.1983855155736213|-0.2449873685836792|0.9427968263626099|0.2260869890451431|0|0|0|-1|-1|3
2021-02-10 19:46:52.820 +0000|24927.55801025|-0.6555328369140625|2.093643188476562|0.9388275146484375|24927.53804825|1.72377070360692|-2.402212430346436|-1.264506078064224|0.9843191504478455|-2.845688104629517|1.700704097747803|0.354741096496582|0.5671863555908203|0.5828877687454224|XArbitraryZVertical|-0.4319610160307301|0.6517710026379923|-0.579984927942845|0.2285206100846918|-0.2031755447387695|0.9534587264060974|0.2227915227413177|0|0|0|-1|-1|3
2021-02-10 19:46:52.839 +0000|24927.57797325|-0.883087158203125|1.655242919921875|0.7351226806640625|24927.55801025|1.68195643190562|-2.49994981150807|-1.310180902474035|1.696415066719055|-2.832164764404297|2.066349506378174|-0.2186876982450485|1.19709849357605|0.7770322561264038|XArbitraryZVertical|-0.4327665724151438|0.6449238017096377|-0.5718437084982708|0.2641612813333671|-0.1542218923568726|0.9662315845489502|0.2064272314310074|0|0|0|-1|-1|3
