loggingTime(txt)|accelerometerTimestamp_sinceReboot(s)|accelerometerAccelerationX(G)|accelerometerAccelerationY(G)|accelerometerAccelerationZ(G)|motionTimestamp_sinceReboot(s)|motionYaw(rad)|motionRoll(rad)|motionPitch(rad)|motionRotationRateX(rad/s)|motionRotationRateY(rad/s)|motionRotationRateZ(rad/s)|motionUserAccelerationX(G)|motionUserAccelerationY(G)|motionUserAccelerationZ(G)|motionAttitudeReferenceFrame(txt)|motionQuaternionX(R)|motionQuaternionY(R)|motionQuaternionZ(R)|motionQuaternionW(R)|motionGravityX(G)|motionGravityY(G)|motionGravityZ(G)|motionMagneticFieldX(µT)|motionMagneticFieldY(µT)|motionMagneticFieldZ(µT)|motionHeading(°)|motionMagneticFieldCalibrationAccuracy(Z)|label
2021-03-04 23:18:13.109 +0000|234959.0854789167|-0.2378082275390625|0.2046051025390625|-0.8813323974609375|234959.0655169167|2.832943609246015|-0.3919719565296292|-0.2271362913704188|-0.2766737937927246|-0.1377320438623428|-0.7093431353569031|0.1343457102775574|0.07531830668449402|0.02264368534088135|XArbitraryZVertical|-0.1740939925591294|0.1395739218912822|-0.9663478671601946|-0.1279930086027178|-0.372199684381485|0.2251883000135422|-0.9004207849502563|0|0|0|-1|-1|3
2021-03-04 23:18:13.121 +0000|234959.1054409167|-0.245391845703125|0.223236083984375|-0.888214111328125|234959.0854789167|2.817079511148869|-0.3963870808612613|-0.2295612694938295|-0.3959652185440063|-0.2015948444604874|-0.714703381061554|0.1713545322418213|-0.007976368069648743|0.0274432897567749|XArbitraryZVertical|-0.1748943325017553|0.1424106668217071|-0.9648226783629386|-0.1350865887056766|-0.375959575176239|0.2275503277778625|-0.8982623219490051|0|0|0|-1|-1|3
2021-03-04 23:18:13.123 +0000|234959.1254029167|-0.240203857421875|0.300506591796875|-0.884918212890625|234959.1054409167|2.800850043399524|-0.4009541686433181|-0.2342624725570829|-0.4601518213748932|-0.1609381288290024|-0.7738572359085083|0.1217018067836761|0.0209718644618988|0.01413244009017944|XArbitraryZVertical|-0.1754918312531651|0.1463968943799725|-0.9631117085841162|-0.1420791485401889|-0.3796363770961761|0.2321256697177887|-0.8955411314964294|0|0|0|-1|-1|3
2021-03-04 23:18:13.141 +0000|234959.1453639167|-0.228759765625|0.3165740966796875|-0.88446044921875|234959.1254029167|2.783387429795271|-0.4064291648130727|-0.2383582368624301|-0.3999525308609009|-0.2085247039794922|-0.7792925834655762|0.1956323385238647|-0.003227949142456055|-0.007684886455535889|XArbitraryZVertical|-0.1764365338077248|0.150286182549104|-0.9611943781965515|-0.1496313334941298|-0.3841546475887299|0.2361076027154922|-0.8925684094429016|0|0|0|-1|-1|3
2021-03-04 23:18:13.161 +0000|234959.1653259167|-0.2188720703125|0.2905426025390625|-0.906982421875|234959.1453639167|2.766642761519838|-0.411451737121298|-0.2406956987859986|-0.3372069001197815|-0.1802219152450562|-0.7490242123603821|0.145994633436203|0.08712217211723328|0.009244859218597412|XArbitraryZVertical|-0.1773424182506596|0.1532642326219584|-0.9593749704798112|-0.1570335240297982|-0.3884109854698181|0.2383783310651779|-0.8901194930076599|0|0|0|-1|-1|3
2021-03-04 23:18:13.181 +0000|234959.1852879167|-0.3391265869140625|0.319000244140625|-0.907562255859375|234959.1653259167|2.74991484142422|-0.4170575246509983|-0.2412245973385919|-0.4054003953933716|-0.3287074863910675|-0.794803261756897|0.1742273569107056|0.07940641045570374|-0.00148475170135498|XArbitraryZVertical|-0.1786824762830185|0.1554548162337314|-0.9575107703400479|-0.1645583190883424|-0.3933435678482056|0.2388919442892075|-0.8878127336502075|0|0|0|-1|-1|3
2021-03-04 23:18:13.200 +0000|234959.2052499167|-0.4478912353515625|0.319671630859375|-0.898834228515625|234959.1852879167|2.731504270869863|-0.4265103284880734|-0.2434282717824303|-0.5499724745750427|-0.4291611313819885|-0.8156409859657288|0.1204783320426941|0.0975307822227478|-0.02380561828613281|XArbitraryZVertical|-0.1815149040116353|0.1589515177362542|-0.9550267100787633|-0.1723678196599704|-0.4014994204044342|0.2410312294960022|-0.8835735321044922|0|0|0|-1|-1|3
2021-03-04 23:18:13.220 +0000|234959.2252119167|-0.491729736328125|0.3470611572265625|-0.899749755859375|234959.2052499167|2.711093111619266|-0.436320926658082|-0.247841148483228|-0.7474305033683777|-0.4040220975875854|-0.8893534541130066|0.004390895366668701|0.07109461724758148|-0.02702009677886963|XArbitraryZVertical|-0.1840431214019959|0.1637630935639781|-0.9521675014433272|-0.1807949801383312|-0.4096948504447937|0.2453116476535797|-0.8786195516586304|0|0|0|-1|-1|3
2021-03-04 23:18:13.240 +0000|234959.2451739167|-0.5308074951171875|0.4240875244140625|-0.8916473388671875|234959.2252119167|2.686987404167044|-0.4468029473881854|-0.2568838901317248|-0.9175819158554077|-0.3757645785808563|-0.9673286080360413|-0.05282732844352722|0.06519168615341187|-0.02258044481277466|XArbitraryZVertical|-0.1859235087515912|0.1712077707040963|-0.9486354630096601|-0.1902922198101176|-0.4179062843322754|0.2540679275989532|-0.8722407221794128|0|0|0|-1|-1|3
2021-03-04 23:18:13.260 +0000|234959.2651359167|-0.522552490234375|0.42889404296875|-0.856689453125|234959.2451739167|2.662509953271142|-0.4582834566344546|-0.2651750551812278|-0.7736719846725464|-0.2961773872375488|-0.8706148266792297|-0.07873058319091797|0.130530446767807|-0.03489351272583008|XArbitraryZVertical|-0.1881740711463308|0.1784858919881376|-0.9448759548371723|-0.1998570956083837|-0.4269456565380096|0.262078195810318|-0.8654665946960449|0|0|0|-1|-1|3
2021-03-04 23:18:13.280 +0000|234959.2850979167|-0.533538818359375|0.3675079345703125|-0.7910308837890625|234959.2651359167|2.641384662845577|-0.4686744531747118|-0.2692620678530755|-0.5108081102371216|-0.2000006884336472|-0.7667519450187683|-0.09568458795547485|0.165727287530899|-0.01729857921600342|XArbitraryZVertical|-0.190624830144693|0.1834442261836262|-0.941591615557689|-0.2083645764574414|-0.4354280531406403|0.2660201787948608|-0.8600207567214966|0|0|0|-1|-1|3
2021-03-04 23:18:13.300 +0000|234959.3050589167|-0.51177978515625|0.3173370361328125|-0.74822998046875|234959.2850979167|2.624417335136968|-0.4765981852648613|-0.2698603697556153|-0.3111514449119568|-0.1322830468416214|-0.662284791469574|-0.08296018838882446|0.1375626921653748|0.02984863519668579|XArbitraryZVertical|-0.1927007173095441|0.1861865390972923|-0.939013727526517|-0.2155325906994089|-0.4421557784080505|0.2665968537330627|-0.8564020395278931|0|0|0|-1|-1|3
2021-03-04 23:18:13.320 +0000|234959.3250209167|-0.5348663330078125|0.291748046875|-0.7303314208984375|234959.3050589167|2.610142519418786|-0.4825651803170929|-0.2685030186821864|-0.2161626070737839|-0.1012223288416862|-0.6100851893424988|-0.08197811245918274|0.05130094289779663|0.09019798040390015|XArbitraryZVertical|-0.1943554559730688|0.1875949329252786|-0.9369194831168284|-0.221846882087044|-0.44742551445961|0.265288382768631|-0.8540682196617126|0|0|0|-1|-1|3
2021-03-04 23:18:13.340 +0000|234959.3449829167|-0.548583984375|0.2819976806640625|-0.7327423095703125|234959.3250209167|2.596939350389388|-0.4885361960469887|-0.2669939884682094|-0.1767290085554123|-0.1197248548269272|-0.6260550618171692|-0.06580433249473572|0.03018850088119507|0.113849401473999|XArbitraryZVertical|-0.1961233043188374|0.1888615476635654|-0.9348993054004352|-0.2276627202654888|-0.4527045488357544|0.2638331353664398|-0.851733922958374|0|0|0|-1|-1|3
2021-03-04 23:18:13.361 +0000|234959.3649449167|-0.4936676025390625|0.2362213134765625|-0.7379608154296875|234959.3449829167|2.583092642475567|-0.4955824394503267|-0.2666038476004082|-0.1981673985719681|-0.1130720674991608|-0.6696479320526123|-0.08558306097984314|0.0287032425403595|0.1127582788467407|XArbitraryZVertical|-0.1981557636315547|0.1908601118743397|-0.9326196679075439|-0.2335107359244157|-0.458743691444397|0.263456791639328|-0.848613440990448|0|0|0|-1|-1|3
2021-03-04 23:18:13.380 +0000|234959.3849069167|-0.529052734375|0.2551422119140625|-0.7137451171875|234959.3649449167|2.566930504404791|-0.5040848600538667|-0.2663059425627874|-0.2932360470294952|-0.2305841594934464|-0.8011049032211304|-0.06526976823806763|-0.01013290882110596|0.1072632670402527|XArbitraryZVertical|-0.2006070341958099|0.1933424336734902|-0.9298659148402516|-0.2402599651925759|-0.4659801721572876|0.2631694078445435|-0.8447510600090027|0|0|0|-1|-1|3
2021-03-04 23:18:13.400 +0000|234959.4048689167|-0.5914764404296875|0.2714691162109375|-0.691253662109375|234959.3849069167|2.548992614447394|-0.5166602893953109|-0.2660480728977768|-0.3476157486438751|-0.3603034317493439|-0.7379204630851746|-0.01928043365478516|-0.01852056384086609|0.1120158433914185|XArbitraryZVertical|-0.2047341360692668|0.1965761669309469|-0.9264112466085327|-0.2473943384688109|-0.4765996634960175|0.262920618057251|-0.8388834595680237|0|0|0|-1|-1|3
2021-03-04 23:18:13.420 +0000|234959.4248309167|-0.608673095703125|0.2785186767578125|-0.7001800537109375|234959.4048689167|2.532962586958682|-0.5289788952352764|-0.2667455293379657|-0.3681245148181915|-0.2853837013244629|-0.5902592539787292|-0.07912874221801758|0.006731271743774414|0.1381493210792542|XArbitraryZVertical|-0.2087302412889873|0.2000911334779544|-0.9231143258884296|-0.2534863117433666|-0.4868044853210449|0.263593465089798|-0.8327904343605042|0|0|0|-1|-1|3
2021-03-04 23:18:13.440 +0000|234959.4447929167|-0.660308837890625|0.3039398193359375|-0.72900390625|234959.4248309167|2.518742793933917|-0.53945987484344|-0.2688108444456758|-0.4108310639858246|-0.2282667756080627|-0.4846984148025513|-0.1079698503017426|0.007898092269897461|0.136423647403717|XArbitraryZVertical|-0.211790280513757|0.2038578031012904|-0.9201467887652537|-0.2586828598974979|-0.4952253401279449|0.26558518409729|-0.8271737694740295|0|0|0|-1|-1|3
2021-03-04 23:18:13.460 +0000|234959.4647549167|-0.654266357421875|0.28338623046875|-0.7495880126953125|234959.4447929167|2.506075846337273|-0.5487891742472654|-0.2723947786592086|-0.4699364006519318|-0.175418421626091|-0.3565061092376709|-0.1258292198181152|0.02295354008674622|0.1037896275520325|XArbitraryZVertical|-0.214180796677737|0.2080297946415434|-0.9174274584394729|-0.2630156524127225|-0.5024208426475525|0.2690386772155762|-0.821700394153595|0|0|0|-1|-1|3
2021-03-04 23:18:13.480 +0000|234959.4847159167|-0.6370391845703125|0.2722320556640625|-0.7384796142578125|234959.4647549167|2.494682274182778|-0.5555377730735636|-0.2776925537163143|-0.5786083936691284|-0.1307656913995743|-0.2881365418434143|-0.1580873131752014|0.02787989377975464|0.07251596450805664|XArbitraryZVertical|-0.215185176047704|0.2125112838527147|-0.9150878271342824|-0.2667368845792296|-0.5071958899497986|0.2741373181343079|-0.8170685768127441|0|0|0|-1|-1|3
2021-03-04 23:18:13.500 +0000|234959.5046779167|-0.5891876220703125|0.2854156494140625|-0.746063232421875|234959.4847159167|2.48177262101646|-0.5637955726367256|-0.2867624519749826|-0.8177115321159363|-0.1449031233787537|-0.2790452241897583|-0.1247837543487549|-0.02311325073242188|0.05748260021209717|XArbitraryZVertical|-0.2160132773414054|0.2190422921991561|-0.9122814959689338|-0.270372474621594|-0.5125758647918701|0.2828483581542969|-0.8107174634933472|0|0|0|-1|-1|3
2021-03-04 23:18:13.520 +0000|234959.5246399167|-0.5821685791015625|0.28790283203125|-0.7038116455078125|234959.5046779167|2.464914980851341|-0.5724699350107482|-0.2981756924438774|-0.9479283094406128|-0.08504069596529007|-0.3290747404098511|-0.160172164440155|-0.01959168910980225|0.0835651159286499|XArbitraryZVertical|-0.2160848970743739|0.2270901370621159|-0.9088093783769734|-0.2753232778333525|-0.517806351184845|0.2937768995761871|-0.8034747838973999|0|0|0|-1|-1|3
2021-03-04 23:18:13.540 +0000|234959.5446019167|-0.6299285888671875|0.3126220703125|-0.677490234375|234959.5246399167|2.446663208989677|-0.5822996473715391|-0.3106938659955297|-1.01409912109375|-0.1118567585945129|-0.3731340765953064|-0.06174206733703613|-0.01291847229003906|0.07598918676376343|XArbitraryZVertical|-0.2161809087773269|0.2359231314531807|-0.9049461769632106|-0.280496824584734|-0.5236155390739441|0.3057193458080292|-0.7952122092247009|0|0|0|-1|-1|3
2021-03-04 23:18:13.560 +0000|234959.5645639167|-0.63482666015625|0.271942138671875|-0.6671600341796875|234959.5446019167|2.426856853871874|-0.5924614877960701|-0.3229634685165247|-1.031398773193359|-0.0354548767209053|-0.4441065192222595|-0.07997769117355347|-0.002238422632217407|0.104733407497406|XArbitraryZVertical|-0.216123264077475|0.2448491856640216|-0.9007774747844491|-0.2862511316580684|-0.529534637928009|0.3173781931400299|-0.786679208278656|0|0|0|-1|-1|3
2021-03-04 23:18:13.580 +0000|234959.5845259167|-0.665557861328125|0.256744384765625|-0.630645751953125|234959.5645639167|2.407266223246288|-0.6011990654502513|-0.3338097423333164|-1.068157196044922|-0.06115960329771042|-0.2156950086355209|-0.08119118213653564|-0.04427385330200195|0.1017847061157227|XArbitraryZVertical|-0.2155560125785767|0.2529165692868713|-0.8967664318331025|-0.2921962872499561|-0.5344093441963196|0.3276448547840118|-0.7791376113891602|0|0|0|-1|-1|3
2021-03-04 23:18:13.600 +0000|234959.6044879167|-0.586181640625|0.2325286865234375|-0.6392669677734375|234959.5845259167|2.390351111556365|-0.6066916858209926|-0.348184250437409|-1.129593014717102|0.2465347796678543|-0.07681719213724136|-0.1574499011039734|-0.06955456733703613|0.13712477684021|XArbitraryZVertical|-0.2130456865135086|0.2617075848737321|-0.8933672908141288|-0.2966744286037465|-0.5359399914741516|0.3411915898323059|-0.7722413539886475|0|0|0|-1|-1|3
2021-03-04 23:18:13.620 +0000|234959.6244499167|-0.5560302734375|0.1871337890625|-0.6252288818359375|234959.6044879167|2.375050821114174|-0.6076177229887795|-0.3657159904567535|-1.172676920890808|0.2823586165904999|-0.06263035535812378|-0.0905759334564209|-0.1091438829898834|0.1297066211700439|XArbitraryZVertical|-0.2079399391218551|0.2709304572457646|-0.8905616194936394|-0.3004293149574586|-0.5331575870513916|0.3576180338859558|-0.7667153477668762|0|0|0|-1|-1|3
2021-03-04 23:18:13.640 +0000|234959.6444119167|-0.5388641357421875|0.162200927734375|-0.6008453369140625|234959.6244499167|2.35842799887785|-0.6122032770697494|-0.3844130560367774|-1.256490468978882|0.184305340051651|-0.120495431125164|-0.004377663135528564|-0.1711729168891907|0.09987419843673706|XArbitraryZVertical|-0.2038886608508295|0.2812487074629285|-0.887080218019848|-0.3040022814604598|-0.5327317118644714|0.3750150799751282|-0.7586571574211121|0|0|0|-1|-1|3
2021-03-04 23:18:13.660 +0000|234959.6643729167|-0.509765625|0.1590576171875|-0.5762786865234375|234959.6444119167|2.339615088761307|-0.6157415860591142|-0.404475902416469|-1.393354654312134|0.1723897755146027|-0.1190050393342972|-0.02212560176849365|-0.2262243330478668|0.1409306526184082|XArbitraryZVertical|-0.1985905902700943|0.292104513366782|-0.8832629292698366|-0.30835592250049|-0.5309597253799438|0.3935370147228241|-0.7504734396934509|0|0|0|-1|-1|3
2021-03-04 23:18:13.680 +0000|234959.6843349167|-0.49359130859375|0.1448822021484375|-0.557952880859375|234959.6643729167|2.31878406691944|-0.6207419320349951|-0.4267498485821137|-1.526947498321533|0.1478618383407593|-0.1387916207313538|-0.0008288025856018066|-0.2520033121109009|0.1584168076515198|XArbitraryZVertical|-0.1929442351501398|0.3041802314474062|-0.878837310355316|-0.3128767836334806|-0.5294750332832336|0.4139143228530884|-0.7404938340187073|0|0|0|-1|-1|3
2021-03-04 23:18:13.699 +0000|234959.7042969167|-0.4803314208984375|0.197845458984375|-0.549835205078125|234959.6843349167|2.294990505869742|-0.6279257212949968|-0.4502403931512914|-1.649214744567871|0.1301185339689255|-0.2248738557100296|0.02863204479217529|-0.2771771848201752|0.1621940135955811|XArbitraryZVertical|-0.1872555462148525|0.3172305780101635|-0.8736065001521567|-0.3179809878613766|-0.528921902179718|0.4351819753646851|-0.7286002635955811|0|0|0|-1|-1|3
2021-03-04 23:18:13.720 +0000|234959.7242589167|-0.5075836181640625|0.25042724609375|-0.523406982421875|234959.7042969167|2.267582020002332|-0.6385331435828029|-0.4733125661179702|-1.677178502082825|0.03199154138565063|-0.4110527038574219|0.05177992582321167|-0.3105124235153198|0.1577795743942261|XArbitraryZVertical|-0.1822345468891364|0.3308219120344841|-0.8674055028198022|-0.3239679902037345|-0.5304939150810242|0.4558371603488922|-0.7146948575973511|0|0|0|-1|-1|3
2021-03-04 23:18:13.739 +0000|234959.7442209167|-0.466644287109375|0.227935791015625|-0.508087158203125|234959.7242589167|2.23562692496139|-0.6537593796913908|-0.4947437449641146|-1.738783597946167|-0.03279634937644005|-0.5801949501037598|0.04104727506637573|-0.2404463589191437|0.1627298593521118|XArbitraryZVertical|-0.178430683749596|0.344750981084665|-0.8600219989142962|-0.3311670224354829|-0.5352489352226257|0.4748061299324036|-0.6986185312271118|0|0|0|-1|-1|3
2021-03-04 23:18:13.759 +0000|234959.7641829167|-0.408050537109375|0.238494873046875|-0.4813232421875|234959.7442209167|2.198739705568601|-0.6726208990429304|-0.5141357717948593|-1.796749353408813|-0.07956737279891968|-0.7575976252555847|0.04703778028488159|-0.2506020963191986|0.1621168255805969|XArbitraryZVertical|-0.1753495071049273|0.3587735377095098|-0.8514798874360275|-0.3398765451301716|-0.5424906015396118|0.491782546043396|-0.6810681819915771|0|0|0|-1|-1|3
2021-03-04 23:18:13.780 +0000|234959.7841449167|-0.347991943359375|0.2399139404296875|-0.43280029296875|234959.7641829167|2.156888034699254|-0.6959306289522681|-0.5320986713263351|-1.906101584434509|-0.1696615219116211|-0.9245761036872864|0.1153455972671509|-0.2813602685928345|0.1634730100631714|XArbitraryZVertical|-0.1730780130349843|0.3733202391139779|-0.8416432504663736|-0.3497323023835011|-0.5524641871452332|0.5073429942131042|-0.6613519787788391|0|0|0|-1|-1|3
2021-03-04 23:18:13.799 +0000|234959.8041069167|-0.286224365234375|0.2575836181640625|-0.372528076171875|234959.7841449167|2.109256949345771|-0.7250690924524757|-0.5495706387386377|-2.064013481140137|-0.2951697409152985|-1.039420485496521|0.1927751302719116|-0.2821477651596069|0.1816847324371338|XArbitraryZVertical|-0.1716537278372655|0.3891189128742877|-0.8301723873023596|-0.3604652677546887|-0.5655320882797241|0.5223211646080017|-0.6382429599761963|0|0|0|-1|-1|3
2021-03-04 23:18:13.819 +0000|234959.8240689167|-0.2773284912109375|0.316680908203125|-0.3308563232421875|234959.8041069167|2.056560581025567|-0.7605758633960049|-0.5663624084137419|-2.170137882232666|-0.4790180027484894|-1.126376390457153|0.2669764757156372|-0.2833616137504578|0.2104604244232178|XArbitraryZVertical|-0.1712767984752578|0.4062046532683836|-0.8171024525135121|-0.3714911902429827|-0.5817042589187622|0.5365660190582275|-0.6113240718841553|0|0|0|-1|-1|3
2021-03-04 23:18:13.840 +0000|234959.8440315|-0.365875244140625|0.455413818359375|-0.3407440185546875|234959.8240689167|2.00051505821722|-0.8027258466663257|-0.5802080925898587|-2.110284090042114|-0.7073569893836975|-1.242912888526917|0.3289323449134827|-0.2690232396125793|0.2332128286361694|XArbitraryZVertical|-0.1728407504344861|0.4237924374040019|-0.8027102758446145|-0.3823377928013701|-0.6015458106994629|0.5481979846954346|-0.5810520648956299|0|0|0|-1|-1|3
2021-03-04 23:18:13.872 +0000|234959.8639925|-0.471923828125|0.5789794921875|-0.34637451171875|234959.8440315|1.944867724142622|-0.8499249123133985|-0.5884376078179644|-1.875868558883667|-0.9197415113449097|-1.303684234619141|0.3183619976043701|-0.1908043026924133|0.2169955968856812|XArbitraryZVertical|-0.1771966801158613|0.4405541289602749|-0.7877666405446797|-0.3923482173731941|-0.6248804926872253|0.5550621151924133|-0.5490267872810364|0|0|0|-1|-1|3
2021-03-04 23:18:13.884 +0000|234959.8839545|-0.43780517578125|0.5217742919921875|-0.3461456298828125|234959.8839545|1.846779538868811|-0.9397076236453464|-0.591198726001342|-1.413756608963013|-0.7714232206344604|-1.082742094993591|0.1988082528114319|-0.005522608757019043|0.1415077745914459|XArbitraryZVertical|-0.1888202397198741|0.4684082946755876|-0.7599136495155163|-0.4092331956249388|-0.6703506112098694|0.5573567152023315|-0.4898811876773834|0|0|0|-1|-1|3
2021-03-04 23:18:13.900 +0000|234959.9039165|-0.3763427734375|0.5512542724609375|-0.372344970703125||||||||||||||||||||||||3
2021-03-04 23:18:13.919 +0000|234959.9238785|-0.529876708984375|0.714813232421875|-0.4355926513671875|234959.9039165|1.807015403430166|-0.9789164465828011|-0.5884432822593245|-1.175183773040771|-0.9851766228675842|-1.070930004119873|0.3045373558998108|-0.04871916770935059|0.09816184639930725|XArbitraryZVertical|-0.1950383090955855|0.4794983353137672|-0.7478590295294704|-0.4156299112848009|-0.690310001373291|0.5550668239593506|-0.464082807302475|0|0|0|-1|-1|3
2021-03-04 23:18:13.939 +0000|234959.9438405|-0.719573974609375|0.9425201416015625|-0.5069732666015625|234959.9238785|1.771792325470962|-1.020661417452084|-0.5816749827697514|-0.9394198656082153|-1.239205121994019|-1.070610642433167|0.2772191166877747|0.06558126211166382|0.04708406329154968|XArbitraryZVertical|-0.2041343893624115|0.4898133832426028|-0.7360267255239268|-0.4203291121197933|-0.7122623920440674|0.5494242310523987|-0.4368239939212799|0|0|0|-1|-1|3
2021-03-04 23:18:13.959 +0000|234959.9638025|-0.831146240234375|0.930267333984375|-0.54571533203125|234959.9438405|1.741547328917006|-1.062711611403436|-0.5716442495172358|-0.7573874592781067|-1.282745242118835|-1.090680956840515|0.1063562035560608|0.2944336533546448|-0.0658341646194458|XArbitraryZVertical|-0.215222335546343|0.4991001951423757|-0.7246604920120113|-0.4236102437229975|-0.7347741723060608|0.541015625|-0.4091566801071167|0|0|0|-1|-1|3
2021-03-04 23:18:13.979 +0000|234959.9837645|-0.8710174560546875|0.797637939453125|-0.5321502685546875|234959.9638025|1.715898493983018|-1.10148800313484|-0.5593166117394114|-0.601498544216156|-1.203179121017456|-0.998908519744873|-0.02641975879669189|0.4398671984672546|-0.1458535194396973|XArbitraryZVertical|-0.2266868640343761|0.506889727665326|-0.7140679929145667|-0.4263599305085067|-0.7559745907783508|0.5306070446968079|-0.383351743221283|0|0|0|-1|-1|3
2021-03-04 23:18:14.004 +0000|234960.0037265|-0.9118804931640625|0.739532470703125|-0.4621734619140625|234959.9837645|1.692743065623029|-1.137035024217869|-0.5488681059045787|-0.7941757440567017|-1.13793683052063|-0.794414758682251|-0.08387666940689087|0.3380804061889648|-0.1921517252922058|XArbitraryZVertical|-0.2367529437778725|0.5144622899644342|-0.7041566239715896|-0.4282990708653427|-0.7741097211837769|0.5217218995094299|-0.3585532009601593|0|0|0|-1|-1|3
2021-03-04 23:18:14.019 +0000|234960.0236885|-0.935821533203125|0.697174072265625|-0.3543548583984375|234960.0037265|1.662769582361255|-1.174306266998052|-0.5444599982492286|-1.410079479217529|-1.029244184494019|-0.6349554061889648|-0.1064155697822571|0.2496219277381897|-0.1698698401451111|XArbitraryZVertical|-0.2434114339457245|0.5249561829216314|-0.6928439414667484|-0.4302780145596461|-0.7890464663505554|0.5179562568664551|-0.3303437530994415|0|0|0|-1|-1|3
2021-03-04 23:18:14.039 +0000|234960.0436495|-0.9136810302734375|0.6836700439453125|-0.31402587890625|234960.0236885|1.619313808398384|-1.214936977327703|-0.5470378889479331|-2.124834060668945|-0.7568979859352112|-0.4837085902690887|-0.1314321160316467|0.2009096741676331|-0.1035382449626923|XArbitraryZVertical|-0.2449354630732725|0.5396568337947591|-0.6787614685086222|-0.4336588505157002|-0.8005594611167908|0.5201596617698669|-0.2975542545318604|0|0|0|-1|-1|3
2021-03-04 23:18:14.059 +0000|234960.0636115|-0.8145751953125|0.6837005615234375|-0.2713470458984375|234960.0436495|1.563815738754696|-1.255734873135166|-0.5548342615806652|-2.589744091033936|-0.4093421697616577|-0.3406139612197876|-0.1200582385063171|0.1467358469963074|-0.0765148401260376|XArbitraryZVertical|-0.2408216048842286|0.5570547608524508|-0.6625996311246106|-0.438926828024197|-0.8081491589546204|0.5268024206161499|-0.2633898854255676|0|0|0|-1|-1|3
2021-03-04 23:18:14.078 +0000|234960.0835735|-0.6796112060546875|0.61370849609375|-0.2579345703125|234960.0636115|1.499541716391293|-1.294308836155001|-0.5657144968016506|-2.866634845733643|-0.05905953794717789|-0.1943804025650024|-0.06465744972229004|0.1621315479278564|-0.0536535382270813|XArbitraryZVertical|-0.2315865117707313|0.575450060887015|-0.6452258142429503|-0.4459917191578776|-0.812143087387085|0.5360191464424133|-0.2304498255252838|0|0|0|-1|-1|3
2021-03-04 23:18:14.099 +0000|234960.1035355|-0.60400390625|0.53509521484375|-0.203033447265625|234960.0835735|1.432740307898737|-1.329369894807557|-0.5775184323282661|-2.853938102722168|0.1407697349786758|-0.1271046847105026|0.06614601612091064|0.1156288981437683|-0.05826273560523987|XArbitraryZVertical|-0.2192155783383121|0.5931173440746087|-0.6279291412339162|-0.4537196163275643|-0.8135216236114502|0.5459465384483337|-0.2003126889467239|0|0|0|-1|-1|3
2021-03-04 23:18:14.119 +0000|234960.1234975|-0.557159423828125|0.619140625|-0.100341796875|234960.1035355|1.366898083342803|-1.361009837493284|-0.5889216352244153|-2.74516749382019|0.3300080001354218|-0.006766558159142733|0.1954349279403687|-0.01475411653518677|-0.06282323598861694|XArbitraryZVertical|-0.2052985872588845|0.6093175752526159|-0.6112805220480682|-0.4614334932281927|-0.8133091330528259|0.5554646253585815|-0.1731691658496857|0|0|0|-1|-1|3
2021-03-04 23:18:14.139 +0000|234960.1434595|-0.455596923828125|0.602691650390625|-0.0518035888671875|234960.1234975|1.300763829526109|-1.389170581816128|-0.602073647443582|-2.844768285751343|0.5601561665534973|0.2050150185823441|0.231734037399292|0.02066820859909058|0.01010419428348541|XArbitraryZVertical|-0.1888188550834113|0.6244306545937582|-0.5953313676791019|-0.4690569643857373|-0.8106066584587097|0.5663527250289917|-0.148867592215538|0|0|0|-1|-1|3
2021-03-04 23:18:14.159 +0000|234960.1634215|-0.3800201416015625|0.53375244140625|-0.0675201416015625|234960.1434595|1.234383509213691|-1.413542249733557|-0.6161713434730792|-2.814911603927612|0.7745583653450012|0.2791637480258942|0.2844513654708862|0.04659682512283325|0.04844537377357483|XArbitraryZVertical|-0.170077403422891|0.6380991483764213|-0.579978957281139|-0.4769984303124851|-0.8060272336006165|0.577914834022522|-0.1278063058853149|0|0|0|-1|-1|3
2021-03-04 23:18:14.178 +0000|234960.1833835|-0.3819732666015625|0.6395721435546875|0.033905029296875|234960.1634215|1.170928115445058|-1.436373618390934|-0.629911671623842|-2.50472617149353|0.6667418479919434|0.3132336437702179|0.3870934844017029|-0.02521538734436035|0.02634251862764359|XArbitraryZVertical|-0.1513148600516863|0.650349991980672|-0.5655195533052437|-0.4840829578055942|-0.8007897138595581|0.5890733599662781|-0.1082974001765251|0|0|0|-1|-1|3
2021-03-04 23:18:14.198 +0000|234960.2033455|-0.447296142578125|0.6415252685546875|-0.003082275390625|234960.1833835|1.119240430914712|-1.452235075659022|-0.6370887105108546|-1.814353227615356|0.7844299077987671|-0.01901168376207352|0.3799139857292175|0.02025449275970459|0.06689710915088654|XArbitraryZVertical|-0.1362838296101019|0.6587007543922785|-0.5532128763518696|-0.491421826974678|-0.798187792301178|0.5948577523231506|-0.09508007019758224|0|0|0|-1|-1|3
2021-03-04 23:18:14.218 +0000|234960.2233065|-0.6374664306640625|0.8105316162109375|-0.0771026611328125|234960.2033455|1.083825454216358|-1.458180853372365|-0.63842175253101|-1.088050842285156|0.7139831781387329|-0.1483356803655624|0.4151685237884521|0.02896440029144287|0.1254149675369263|XArbitraryZVertical|-0.1257408693858876|0.662621716473197|-0.5443327803189529|-0.4988221035297931|-0.7979504466056824|0.5959287881851196|-0.0902433916926384|0|0|0|-1|-1|3
2021-03-04 23:18:14.239 +0000|234960.2432685|-0.692230224609375|0.78759765625|-0.1458740234375|234960.2233065|1.061120551856866|-1.456269324828466|-0.6369609207339496|-0.7519997954368591|0.7702270150184631|-0.2218590676784515|0.2637742757797241|0.1181966662406921|0.07978302240371704|XArbitraryZVertical|-0.1182192993949751|0.6633929715277513|-0.5384360588792544|-0.5059848099556352|-0.7986406087875366|0.5947550535202026|-0.09186792373657227|0|0|0|-1|-1|3
2021-03-04 23:18:14.259 +0000|234960.2632305|-0.6987762451171875|0.63946533203125|-0.062225341796875|234960.2432685|1.045149663421677|-1.449631304676544|-0.6339010106368439|-0.5037851929664612|0.7845836281776428|-0.2137488573789597|0.1191518902778625|0.2459492683410645|-0.02546168863773346|XArbitraryZVertical|-0.1122448278722072|0.6623501412458805|-0.5340938466402996|-0.5132614153189103|-0.7998160719871521|0.5922923684120178|-0.09738677740097046|0|0|0|-1|-1|3
2021-03-04 23:18:14.279 +0000|234960.2831925|-0.64935302734375|0.6136322021484375|0.1028594970703125|234960.2632305|1.032275565129497|-1.44112153879134|-0.6327611843497055|-0.5481058359146118|0.7855575680732727|-0.02972939983010292|0.1091060638427734|0.1126974821090698|-0.01025575399398804|XArbitraryZVertical|-0.1061313041230332|0.660755491487922|-0.5309885736209758|-0.5197976724611382|-0.7996273636817932|0.59137362241745|-0.1042766571044922|0|0|0|-1|-1|3
2021-03-04 23:18:14.299 +0000|234960.3031545|-0.66827392578125|0.6480255126953125|0.0369110107421875|234960.2831925|1.016443755053945|-1.434397758278779|-0.6358391015433177|-0.802790105342865|0.8402420878410339|0.1942838132381439|0.1135683059692383|0.01941323280334473|0.1248752325773239|XArbitraryZVertical|-0.0980095096033374|0.6600702652153161|-0.5278571227327739|-0.5254221761689819|-0.7971011400222778|0.5938528180122375|-0.1094027608633041|0|0|0|-1|-1|3
2021-03-04 23:18:14.319 +0000|234960.3231165|-0.7135772705078125|0.7607269287109375|-0.0819549560546875|234960.3031545|0.9975070479919744|-1.427493897295998|-0.6447644206154829|-0.8216878175735474|1.008559107780457|0.4794234037399292|0.1418485045433044|0.02597343921661377|0.2040159702301025|XArbitraryZVertical|-0.08669839428150397|0.6598579955155583|-0.5250997835072276|-0.5304158833718902|-0.7910489439964294|0.6010101437568665|-0.1141416281461716|0|0|0|-1|-1|3
2021-03-04 23:18:14.339 +0000|234960.3430785|-0.735198974609375|0.9128875732421875|-0.01812744140625|234960.3231165|0.9808152522721145|-1.416502091309267|-0.6567961509791405|-0.6511837244033813|1.068827748298645|0.5029746890068054|0.07944995164871216|0.07304161787033081|0.07324761152267456|XArbitraryZVertical|-0.07391734637688438|0.6585449818486732|-0.5236761173296659|-0.5353673291050272|-0.7825444340705872|0.610582709312439|-0.1217094659805298|0|0|0|-1|-1|3
2021-03-04 23:18:14.358 +0000|234960.3630405|-0.7715606689453125|0.718231201171875|-0.0185699462890625|234960.3430785|0.9664277786658366|-1.405659689823584|-0.6682896469790071|-0.634928286075592|0.9238474369049072|0.4440801739692688|0.05635535717010498|0.2631680965423584|0.07827389240264893|XArbitraryZVertical|-0.06212605163487608|0.6569840607515168|-0.522626516617713|-0.5397905779789567|-0.7742050290107727|0.6196444630622864|-0.1290245950222015|0|0|0|-1|-1|3
2021-03-04 23:18:14.378 +0000|234960.3830025|-0.7637939453125|0.6580352783203125|-0.063629150390625|234960.3630405|0.9532359222358708|-1.394365591595176|-0.6793932344980621|-0.5516049861907959|1.008524060249329|0.5022821426391602|0.02491074800491333|0.1914878487586975|0.1467522531747818|XArbitraryZVertical|-0.05074938173662397|0.6550973061024747|-0.5217165547503596|-0.5441358421057561|-0.7658774256706238|0.62832111120224|-0.1365440338850021|0|0|0|-1|-1|3
2021-03-04 23:18:14.399 +0000|234960.4029645|-0.814422607421875|0.866607666015625|-0.0921783447265625|234960.3830025|0.9460289701962411|-1.378604789373567|-0.6926498133385757|-0.2010643035173416|0.9468773603439331|0.661624014377594|-0.009855985641479492|-0.01017588376998901|0.1269586831331253|XArbitraryZVertical|-0.03935712268250879|0.6518852010702111|-0.5228679568215395|-0.5478190516643919|-0.7553874254226685|0.6385785937309265|-0.1469933986663818|0|0|0|-1|-1|3
2021-03-04 23:18:14.418 +0000|234960.4229255|-0.88214111328125|0.8278045654296875|-0.1839752197265625|234960.4029645|0.948606625850324|-1.356737159649086|-0.7086583426031391|0.07122785598039627|1.062514901161194|0.9087568521499634|-0.04965746402740479|0.1185935139656067|0.08646929264068604|XArbitraryZVertical|-0.02847554955177287|0.646952555244789|-0.5272018522212633|-0.5501816207298162|-0.74190753698349|0.6508157253265381|-0.1612830758094788|0|0|0|-1|-1|3
2021-03-04 23:18:14.438 +0000|234960.4428875|-0.964599609375|0.717742919921875|-0.0517730712890625|234960.4229255|0.9592793571562921|-1.328863912449717|-0.7251485554672344|0.3527940511703491|1.063886284828186|0.8691548109054565|-0.1269562840461731|0.238196849822998|0.02965839207172394|XArbitraryZVertical|-0.01832075674216566|0.6403231229406408|-0.5336966000390582|-0.552103784175186|-0.7266051173210144|0.6632466316223145|-0.1793012917041779|0|0|0|-1|-1|3
2021-03-04 23:18:14.458 +0000|234960.4628495|-1.067764282226562|0.7971343994140625|-0.0005035400390625|234960.4428875|0.9745566385385381|-1.295567618835328|-0.7372296652262325|0.4711345434188843|1.110743284225464|0.6310601830482483|-0.2260218262672424|0.06549251079559326|0.09147247672080994|XArbitraryZVertical|-0.009668393805384534|0.6319076959399025|-0.5404117282529317|-0.5554768823421516|-0.7124700546264648|0.6722395420074463|-0.2011983692646027|0|0|0|-1|-1|3
2021-03-04 23:18:14.478 +0000|234960.4828115|-1.149215698242188|0.7010650634765625|-0.005218505859375|234960.4628495|0.9931738007450135|-1.26014014209597|-0.746668368015404|0.4167594611644745|1.233713746070862|0.5676953196525574|-0.2688276767730713|0.07950025796890259|0.1856619268655777|XArbitraryZVertical|-0.002279525876372618|0.6227485295828067|-0.5473687129113478|-0.5590765070641284|-0.6988236308097839|0.6791972517967224|-0.2243581414222717|0|0|0|-1|-1|3
2021-03-04 23:18:14.498 +0000|234960.5027735|-1.086761474609375|0.8213958740234375|-0.178314208984375|234960.4828115|1.003610691522656|-1.225669447970425|-0.7544924752586391|0.2220972925424576|1.416929364204407|0.4726055264472961|-0.4341422915458679|0.08474969863891602|0.2292154431343079|XArbitraryZVertical|0.006962428959448402|0.6137586792830266|-0.5515635479742746|-0.564826955006831|-0.6856544613838196|0.6849189400672913|-0.246503621339798|0|0|0|-1|-1|3
2021-03-04 23:18:14.518 +0000|234960.5227355|-1.10906982421875|1.015274047851562|-0.2819671630859375|234960.5027735|1.013649832546518|-1.188193370271714|-0.7598774855453422|0.2965085506439209|1.521740078926086|0.3664630353450775|-0.4132639169692993|0.06095373630523682|0.1823061406612396|XArbitraryZVertical|0.01635137610530077|0.6036663245783035|-0.5550458348705449|-0.5720521231316207|-0.6725056767463684|0.6888326406478882|-0.2706392109394073|0|0|0|-1|-1|3
2021-03-04 23:18:14.538 +0000|234960.5426975|-0.9715118408203125|0.6907196044921875|-0.268707275390625|234960.5227355|1.025943923569274|-1.15059321393111|-0.761841272308773|0.3869082033634186|1.546183705329895|0.02600159682333469|-0.3916712999343872|0.229483962059021|-0.01222759485244751|XArbitraryZVertical|0.02390220167278298|0.5931616202859975|-0.5584974431501067|-0.5793692309668571|-0.6606205701828003|0.6902549266815186|-0.2951759397983551|0|0|0|-1|-1|3
2021-03-04 23:18:14.558 +0000|234960.5626595|-0.967742919921875|0.998779296875|-0.3840789794921875|234960.5426975|1.039725396489252|-1.116365802254716|-0.7624299983422668|0.5513480305671692|1.003007888793945|0.4314223527908325|-0.3920266628265381|0.1563041210174561|0.01816096901893616|XArbitraryZVertical|0.02966693915043411|0.5834416223664713|-0.5621344919899611|-0.5854233817922194|-0.6497671008110046|0.6906807422637939|-0.3174314796924591|0|0|0|-1|-1|3
2021-03-04 23:18:14.578 +0000|234960.5826215|-0.9658660888671875|1.054580688476562|-0.4207611083984375|234960.5626595|1.059787454857094|-1.087593091235204|-0.7676471632132991|0.5869466066360474|0.6011685132980347|0.5686836242675781|-0.3144782781600952|0.1139969825744629|-0.01962843537330627|XArbitraryZVertical|0.03402301928506576|0.5759212270362374|-0.5682363991220687|-0.586740669811044|-0.6371665596961975|0.6944441795349121|-0.3343143463134766|0|0|0|-1|-1|3
2021-03-04 23:18:14.598 +0000|234960.6025835|-0.9041595458984375|0.6667938232421875|-0.3744049072265625|234960.5826215|1.085988463160048|-1.060904824076089|-0.7694172185467074|0.9468270540237427|0.3212020397186279|0.4088963270187378|-0.3068169355392456|0.3996049165725708|-0.1007420122623444|XArbitraryZVertical|0.03485006996836426|0.5687588732633546|-0.5756769950459993|-0.5864254694052127|-0.6269446015357971|0.6957167387008667|-0.350597620010376|0|0|0|-1|-1|3
2021-03-04 23:18:14.618 +0000|234960.6225455|-0.902191162109375|0.8145599365234375|-0.419952392578125|234960.6025835|1.11717411392273|-1.034562135604529|-0.7679297738261642|1.065252900123596|0.1773564070463181|0.6030886769294739|-0.2982597947120667|0.1496059894561768|-0.02437368035316467|XArbitraryZVertical|0.03309584138988247|0.5613784623767666|-0.5841971283144936|-0.5852115795664996|-0.6183813810348511|0.694647490978241|-0.3675177693367004|0|0|0|-1|-1|3
2021-03-04 23:18:14.638 +0000|234960.6425065|-0.9094085693359375|0.7917327880859375|-0.3751983642578125|234960.6225455|1.151023941686162|-1.007392651161931|-0.7687490644700533|1.057753324508667|0.2082619220018387|0.6963393688201904|-0.2967769503593445|-0.001083731651306152|-0.004230141639709473|XArbitraryZVertical|0.03197681758980464|0.5541109276293319|-0.5937229573751025|-0.5826076467918706|-0.607687771320343|0.6952366232872009|-0.3838771283626556|0|0|0|-1|-1|3
2021-03-04 23:18:14.658 +0000|234960.6624685|-0.7841949462890625|0.766510009765625|-0.4723968505859375|234960.6425065|1.186709305781311|-0.974251214457309|-0.7683628399447417|1.215733289718628|0.6220932006835938|0.6700978875160217|-0.325675904750824|0.1798122525215149|0.06798511743545532|XArbitraryZVertical|0.03194095682220349|0.5449799990922044|-0.603540577674633|-0.5811329450467253|-0.594856321811676|0.6949589848518372|-0.4039531648159027|0|0|0|-1|-1|3
2021-03-04 23:18:14.678 +0000|234960.6824305|-0.7736663818359375|0.8917999267578125|-0.583160400390625|234960.6624685|1.226001899135116|-0.9340842982265981|-0.7654165076468409|1.147676229476929|0.6046708226203918|0.6867473721504211|-0.2555584907531738|0.02836936712265015|0.03276443481445312|XArbitraryZVertical|0.03243114131251867|0.533463413726164|-0.6140701639460511|-0.5807607499473052|-0.5797992348670959|0.6928374171257019|-0.4287300109863281|0|0|0|-1|-1|3
2021-03-04 23:18:14.698 +0000|234960.7023925|-0.7213592529296875|0.666107177734375|-0.4774322509765625|234960.6824305|1.256688359518592|-0.9035978334672462|-0.7627732519157273|0.8482376933097839|0.3383679986000061|0.4447189569473267|-0.2072485089302063|0.1750378608703613|-0.1010957062244415|XArbitraryZVertical|0.03271546697264335|0.5246540514026407|-0.6222938479778495|-0.5800157031485543|-0.5678979158401489|0.6909289360046387|-0.4473356604576111|0|0|0|-1|-1|3
2021-03-04 23:18:14.718 +0000|234960.7223545|-0.6678619384765625|0.783966064453125|-0.4696044921875|234960.7023925|1.279749608428296|-0.8809988920182946|-0.7588029990948291|0.6884498000144958|0.3480176627635956|0.3619182705879211|-0.2128880023956299|0.1097677946090698|-0.0539812445640564|XArbitraryZVertical|0.03224360006480576|0.5177472352375071|-0.6283664630908081|-0.5797014659043135|-0.5597560405731201|0.68805330991745|-0.4617963135242462|0|0|0|-1|-1|3
2021-03-04 23:18:14.738 +0000|234960.7423165|-0.6466217041015625|0.812286376953125|-0.414215087890625|234960.7223545|1.298600366505217|-0.8596874200510712|-0.7574683224558059|0.4157116413116455|0.4725179672241211|0.4023164510726929|-0.1422961354255676|-0.02540206909179688|0.0188353955745697|XArbitraryZVertical|0.03360307747072155|0.5116263375674631|-0.6334047999958011|-0.5795753712109535|-0.5504833459854126|0.6870841979980469|-0.4742186367511749|0|0|0|-1|-1|3
2021-03-04 23:18:14.758 +0000|234960.7622785|-0.5769195556640625|0.7352142333984375|-0.463165283203125|234960.7423165|1.308639714574277|-0.8422992300861816|-0.7599185830785535|-0.01619017496705055|0.6425646543502808|0.3129448592662811|-0.1127437949180603|0.2129625678062439|0.02658730745315552|XArbitraryZVertical|0.03750232084999489|0.5072430318170917|-0.6361293710350011|-0.5802047225479271|-0.5408969521522522|0.6888624429702759|-0.4825961589813232|0|0|0|-1|-1|3
2021-03-04 23:18:14.778 +0000|234960.7822405|-0.5036773681640625|1.031951904296875|-0.636383056640625|234960.7622785|1.313584658164203|-0.8216458288570254|-0.7671009889788879|-0.1322797387838364|1.020375728607178|0.4267789125442505|-0.1249212026596069|-0.02917975187301636|0.07667696475982666|XArbitraryZVertical|0.04557594418007858|0.5027742681469283|-0.6374587578720756|-0.5820544738816398|-0.5271784663200378|0.6940510869026184|-0.490281730890274|0|0|0|-1|-1|3
2021-03-04 23:18:14.798 +0000|234960.8022025|-0.55535888671875|0.8054656982421875|-0.4846954345703125|234960.7822405|1.322143514239183|-0.7977196448288838|-0.7728987137826883|0.2337429225444794|0.5890295505523682|0.4018104672431946|-0.0253104567527771|0.2683241963386536|-0.0307045578956604|XArbitraryZVertical|0.0532901463744344|0.4971847116543954|-0.6395861682717503|-0.5838640306717688|-0.5124092698097229|0.6982133388519287|-0.4999350309371948|0|0|0|-1|-1|3
2021-03-04 23:18:14.818 +0000|234960.8221635|-0.5138397216796875|0.697540283203125|-0.4534912109375|234960.8022025|1.339610750701112|-0.7770689793313209|-0.7711098277008402|0.5624852776527405|0.3600399196147919|0.4034543633460999|-0.02272200584411621|0.1961348652839661|-0.0477524995803833|XArbitraryZVertical|0.05491916949814013|0.4912579720603071|-0.6440686129804782|-0.583802396464828|-0.5028517246246338|0.6969315409660339|-0.5112989544868469|0|0|0|-1|-1|3
2021-03-04 23:18:14.838 +0000|234960.842125|-0.5188751220703125|0.67535400390625|-0.4207916259765625|234960.8221635|1.355326941948954|-0.7583979548815785|-0.7713409213869707|0.2057367265224457|0.3670454323291779|0.3828749656677246|-0.05016657710075378|0.01782280206680298|0.0745430588722229|XArbitraryZVertical|0.05719771359747292|0.4863002102054664|-0.6481369367055803|-0.5832315047206851|-0.4931073188781738|0.6970973014831543|-0.5204810500144958|0|0|0|-1|-1|3
2021-03-04 23:18:14.858 +0000|234960.862087|-0.4960479736328125|0.7393646240234375|-0.4455108642578125|234960.842125|1.366679695997588|-0.7426621380706769|-0.7734390283520212|0.2502549290657043|0.4253193736076355|0.3704025745391846|-0.03522244095802307|-0.00578993558883667|0.08819341659545898|XArbitraryZVertical|0.06035287180367992|0.482502794903298|-0.6510296134141929|-0.582845639059612|-0.483866274356842|0.6986000537872314|-0.5270971655845642|0|0|0|-1|-1|3
2021-03-04 23:18:14.878 +0000|234960.882049|-0.492279052734375|0.687347412109375|-0.5537567138671875|234960.862087|1.380978992089865|-0.7231802299908439|-0.7731478203534246|0.3706803023815155|0.5276947617530823|0.336322546005249|-0.04688221216201782|-0.03616023063659668|0.1275181174278259|XArbitraryZVertical|0.06317127889730111|0.4772018087386197|-0.6545906664790978|-0.5829226590307581|-0.4736408293247223|0.6983916163444519|-0.5365756750106812|0|0|0|-1|-1|3
2021-03-04 23:18:14.897 +0000|234960.902011|-0.4665069580078125|0.725311279296875|-0.4868621826171875|234960.882049|1.390660222010144|-0.7060800762143788|-0.773067126987382|0.04183584079146385|0.4774336516857147|0.1737490594387054|-0.03198105096817017|0.02490228414535522|0.02594709396362305|XArbitraryZVertical|0.06644889954138461|0.4725092738572252|-0.6568595167401602|-0.583828009002502|-0.4644331037998199|0.6983338594436646|-0.5446390509605408|0|0|0|-1|-1|3
2021-03-04 23:18:14.918 +0000|234960.921973|-0.4714813232421875|0.72039794921875|-0.500335693359375|234960.902011|1.389652772424659|-0.6981228906285796|-0.7768805833145064|-0.3423081934452057|0.4309664964675903|0.04733964055776596|-0.02751603722572327|0.01319038867950439|0.02271384000778198|XArbitraryZVertical|0.07073067877403885|0.471020684761647|-0.656325154310148|-0.5851274138838849|-0.4583695828914642|0.7010583877563477|-0.5462733507156372|0|0|0|-1|-1|3
2021-03-04 23:18:14.938 +0000|234960.941935|-0.4782257080078125|0.751434326171875|-0.458740234375|234960.921973|1.385275285553759|-0.6926806775715385|-0.7817156204496122|-0.1904277354478836|0.409502238035202|0.04611014947295189|-0.02950716018676758|-0.01623505353927612|0.06373834609985352|XArbitraryZVertical|0.07536145313169633|0.4703702777383472|-0.6548778111438082|-0.5866920149932109|-0.4532198905944824|0.7044980525970459|-0.5461449027061462|0|0|0|-1|-1|3
2021-03-04 23:18:14.957 +0000|234960.961897|-0.4324188232421875|0.7489471435546875|-0.4690093994140625|234960.941935|1.38442452540456|-0.6858664874394993|-0.7837872311811782|0.08697402477264404|0.4290719926357269|0.1134327277541161|-0.02474981546401978|0.0286065936088562|0.06908607482910156|XArbitraryZVertical|0.07857042676512675|0.4688088572511832|-0.6543773057139102|-0.5880775571481849|-0.4485625326633453|0.7059667706489563|-0.548089861869812|0|0|0|-1|-1|3
2021-03-04 23:18:14.977 +0000|234960.981859|-0.4375152587890625|0.736846923828125|-0.5464324951171875|234960.961897|1.386663782233945|-0.6782237083573397|-0.7843642770088229|0.09294302016496658|0.3451147377490997|0.1083139628171921|-0.008730173110961914|0.07006818056106567|0.1053841114044189|XArbitraryZVertical|0.08076489991935597|0.4667811245975438|-0.6547340706365627|-0.5889954906565626|-0.4441048800945282|0.7063753604888916|-0.5511848330497742|0|0|0|-1|-1|3
2021-03-04 23:18:14.998 +0000|234961.001821|-0.4536590576171875|0.7135467529296875|-0.59613037109375|234960.981859|1.386996455733552|-0.6732715831232341|-0.7845833838731993|-0.07076083868741989|0.2248253375291824|0.02043372578918934|0.009632855653762817|0.02233624458312988|0.04581010341644287|XArbitraryZVertical|0.08239077772834566|0.4653853961795631|-0.6546306687296701|-0.5899889942538531|-0.4412734508514404|0.7065303921699524|-0.5532563924789429|0|0|0|-1|-1|3
2021-03-04 23:18:15.017 +0000|234961.021782|-0.448516845703125|0.77960205078125|-0.5062408447265625|234961.001821|1.381956273898698|-0.6745437009213774|-0.7869353481015895|-0.1559311896562576|0.1753507852554321|-0.0359548032283783|-0.01328575611114502|0.04099845886230469|-0.02746212482452393|XArbitraryZVertical|0.08403284827406018|0.4660910336078917|-0.6532010640819252|-0.5907843354023743|-0.440937876701355|0.7081928849220276|-0.5513952374458313|0|0|0|-1|-1|3
2021-03-04 23:18:15.037 +0000|234961.041744|-0.4268035888671875|0.792510986328125|-0.5001068115234375|234961.021782|1.37827337206055|-0.6737020746108985|-0.7894641022115372|0.009260488674044609|0.3299035429954529|0.03683506697416306|-0.01206111907958984|-0.002807378768920898|-0.008137404918670654|XArbitraryZVertical|0.08611778595230563|0.466263179181705|-0.6520827419957759|-0.5915830011999793|-0.4393548965454102|0.7099759578704834|-0.5503647327423096|0|0|0|-1|-1|3
2021-03-04 23:18:15.057 +0000|234961.061706|-0.407684326171875|0.750152587890625|-0.52496337890625|234961.041744|1.377308030586732|-0.6695833192279267|-0.7923380094846602|-0.04093369096517563|0.2713967859745026|0.1308286786079407|0.0254005491733551|0.122903048992157|0.039154052734375|XArbitraryZVertical|0.08876755147569348|0.4656570896996718|-0.6516220813162987|-0.592176086631728|-0.4358161985874176|0.7119969129562378|-0.5505675673484802|0|0|0|-1|-1|3
2021-03-04 23:18:15.077 +0000|234961.081668|-0.4222259521484375|0.671905517578125|-0.5479583740234375|234961.061706|1.375644950283556|-0.6662447649350763|-0.7960988284518433|-0.1225825622677803|0.2245005369186401|0.008817728608846664|0.01997941732406616|0.03494006395339966|0.04524141550064087|XArbitraryZVertical|0.0916586119870597|0.4654497321836884|-0.6509815120659211|-0.5926029392504928|-0.4323176443576813|0.7146326899528503|-0.5499104857444763|0|0|0|-1|-1|3
2021-03-04 23:18:15.097 +0000|234961.10163|-0.4239959716796875|0.67645263671875|-0.5311126708984375|234961.081668|1.373208334270813|-0.6639449059766965|-0.798523831368554|-0.1830053180456161|0.2026616483926773|-0.0003076824359595776|-0.004084169864654541|0.0004395246505737305|0.008979082107543945|XArbitraryZVertical|0.09388758082739554|0.4652060702765022|-0.6501521491766594|-0.5933553688097476|-0.429982602596283|0.7163268327713013|-0.5495368838310242|0|0|0|-1|-1|3
2021-03-04 23:18:15.117 +0000|234961.121592|-0.41790771484375|0.7374114990234375|-0.4992828369140625|234961.10163|1.369883179108717|-0.6622750186961831|-0.8008140317886284|-0.1958149373531342|0.2053710967302322|0.003794295946136117|0.001632392406463623|-0.06202387809753418|0.01172763109207153|XArbitraryZVertical|0.09606710942865723|0.4650715855821065|-0.6490843744201946|-0.5942803779107905|-0.4280545115470886|0.7179229855537415|-0.5489590764045715|0|0|0|-1|-1|3
2021-03-04 23:18:15.137 +0000|234961.141554|-0.4151153564453125|0.742584228515625|-0.5273284912109375|234961.121592|1.366168106717557|-0.6610446605298577|-0.8060001778780357|-0.1917362064123154|0.228194385766983|0.02972585149109364|0.005287349224090576|-0.003490626811981201|0.02978479862213135|XArbitraryZVertical|0.09928805964992218|0.4656956225374862|-0.6479150891551295|-0.5945381332332098|-0.4250871539115906|0.7215235233306885|-0.5465389490127563|0|0|0|-1|-1|3
2021-03-04 23:18:15.157 +0000|234961.161516|-0.399078369140625|0.74444580078125|-0.5653076171875|234961.141554|1.363104483021058|-0.6591425264348738|-0.8114960012428273|-0.2277153730392456|0.2075010538101196|0.06452865898609161|0.006862729787826538|0.008462071418762207|0.04550063610076904|XArbitraryZVertical|0.1026933413470761|0.4662105748161831|-0.6468986956147013|-0.5946628425505903|-0.4216118454933167|0.7253178358078003|-0.5442035794258118|0|0|0|-1|-1|3
2021-03-04 23:18:15.177 +0000|234961.181478|-0.412872314453125|0.7736053466796875|-0.546630859375|234961.161516|1.360023067202756|-0.6577053406841407|-0.8163281068079246|-0.219431608915329|0.1827104836702347|0.06038637831807137|0.02025961875915527|0.02064704895019531|-0.006539821624755859|XArbitraryZVertical|0.1057026390363836|0.4667038931386183|-0.6458953171995915|-0.5948391921006018|-0.4186818599700928|0.728635847568512|-0.5420288443565369|0|0|0|-1|-1|3
2021-03-04 23:18:15.197 +0000|234961.201439|-0.3850250244140625|0.745880126953125|-0.4983367919921875|234961.181478|1.359167670083564|-0.6546089394161347|-0.8184028549273477|-0.09020426869392395|0.2094934582710266|0.1081042811274529|0.01030325889587402|0.03952187299728394|-0.01193952560424805|XArbitraryZVertical|0.1076861918047517|0.4662000605605859|-0.6454687966498528|-0.5953414504480917|-0.4160802960395813|0.7300552725791931|-0.5421223640441895|0|0|0|-1|-1|3
2021-03-04 23:18:15.217 +0000|234961.221401|-0.3913726806640625|0.7475128173828125|-0.484527587890625|234961.201439|1.359669545508627|-0.6497317660991586|-0.8211883752408627|-0.1052607819437981|0.2355778962373734|0.1361579298973083|-0.002030938863754272|0.03752946853637695|0.02622741460800171|XArbitraryZVertical|0.1101959971622299|0.4653976666100547|-0.645340371805398|-0.5956488666474836|-0.4121993482112885|0.7319560647010803|-0.5425236821174622|0|0|0|-1|-1|3
2021-03-04 23:18:15.237 +0000|234961.241363|-0.3843841552734375|0.7831878662109375|-0.5014495849609375|234961.221401|1.360359962911028|-0.6454413529050844|-0.8251636560716984|-0.1027654930949211|0.2042965143918991|0.1396645903587341|0.03251928091049194|0.01289975643157959|0.05343323945999146|XArbitraryZVertical|0.1129216789714359|0.4650477533759392|-0.6452832752363182|-0.5954735561949672|-0.4081143438816071|0.7346588373184204|-0.5419585704803467|0|0|0|-1|-1|3
2021-03-04 23:18:15.257 +0000|234961.261325|-0.37353515625|0.822479248046875|-0.539306640625|234961.241363|1.361392691460246|-0.6408372771332022|-0.8285086364954904|-0.1117313504219055|0.1739681661128998|0.09305164963006973|0.01547145843505859|0.02654945850372314|0.054249107837677|XArbitraryZVertical|0.1154302797173105|0.4644850656011245|-0.6453031034123103|-0.595410309402536|-0.404143363237381|0.7369240522384644|-0.541858971118927|0|0|0|-1|-1|3
2021-03-04 23:18:15.277 +0000|234961.281287|-0.360015869140625|0.863555908203125|-0.5986785888671875|234961.261325|1.361244610699095|-0.6378950849007411|-0.8310038206630728|-0.05433711409568787|0.1061385795474052|0.030302869156003|0.02686309814453125|0.06682676076889038|0.02195936441421509|XArbitraryZVertical|0.1173555850939806|0.4641597620374335|-0.6450662265397423|-0.5955442210468513|-0.4014510810375214|0.7386084794998169|-0.541566789150238|0|0|0|-1|-1|3
2021-03-04 23:18:15.297 +0000|234961.301249|-0.4992218017578125|0.7772979736328125|-0.646697998046875|234961.281287|1.36360239426515|-0.6372356271347039|-0.8311657623735323|0.120340034365654|-0.06460759043693542|-0.131730854511261|-0.0003902614116668701|0.06395572423934937|-0.02554064989089966|XArbitraryZVertical|0.1170823032333076|0.464138037655135|-0.6457277684838412|-0.594897656522962|-0.4010226726531982|0.7387176156044006|-0.5417352318763733|0|0|0|-1|-1|3
2021-03-04 23:18:15.317 +0000|234961.321211|-0.694122314453125|0.6526641845703125|-0.5138397216796875|234961.301249|1.361010154340557|-0.6394616041916988|-0.8291459566338786|0.01022641733288765|0.01654643192887306|-0.1341542601585388|-0.04584217071533203|0.1044880151748657|-0.0744786262512207|XArbitraryZVertical|0.1162034651254779|0.4641961311246919|-0.6451042231455958|-0.5957006515770751|-0.4031171798706055|0.7373547554016113|-0.5420374274253845|0|0|0|-1|-1|3
2021-03-04 23:18:15.337 +0000|234961.341173|-0.941864013671875|0.5482330322265625|-0.473297119140625|234961.321211|1.354539494712417|-0.643749881961949|-0.8282543128515163|-0.1776470988988876|0.01521985977888107|-0.2494322061538696|-0.1638392508029938|-0.02669960260391235|-0.05284416675567627|XArbitraryZVertical|0.1159881218439771|0.4649000049058856|-0.6434305342591157|-0.5970025469145422|-0.4058323800563812|0.7367521524429321|-0.5408294796943665|0|0|0|-1|-1|3
2021-03-04 23:18:15.357 +0000|234961.361135|-1.140304565429688|0.59759521484375|-0.3400421142578125|234961.341173|1.340360241825712|-0.6538610091871913|-0.8301418860156911|-0.6442285776138306|0.04652377218008041|-0.4754712879657745|-0.399106502532959|-0.2002004981040955|0.04925030469894409|XArbitraryZVertical|0.1167651526448608|0.4675137176420536|-0.639770526359156|-0.5987408122856104|-0.410433292388916|0.7380270957946777|-0.5355936288833618|0|0|0|-1|-1|3
2021-03-04 23:18:15.377 +0000|234961.381096|-1.252304077148438|0.4940185546875|-0.3363800048828125|234961.361135|1.309442767357871|-0.6754809027312512|-0.8366955836866937|-1.190593719482422|0.1530252397060394|-0.7439044713973999|-0.583085834980011|-0.1796129941940308|0.1037575602531433|XArbitraryZVertical|0.1196661048067512|0.4735770322191533|-0.6317675865569717|-0.6018924337080281|-0.4188825190067291|0.742433488368988|-0.522809624671936|0|0|0|-1|-1|3
2021-03-04 23:18:15.397 +0000|234961.401058|-1.36395263671875|0.523040771484375|-0.27130126953125|234961.381096|1.25774452039237|-0.7083881403000996|-0.8508710915371566|-2.082929134368896|0.3645073175430298|-1.003979563713074|-0.7331891059875488|-0.2375116944313049|0.1796262860298157|XArbitraryZVertical|0.1272102581585417|0.4831839355507385|-0.6182984539839979|-0.6066777448500731|-0.4289660751819611|0.7518550157546997|-0.5007016658782959|0|0|0|-1|-1|3
2021-03-04 23:18:15.416 +0000|234961.42102|-1.40521240234375|0.3196258544921875|-0.194305419921875|234961.401058|1.182117988113725|-0.7571890090797185|-0.8723633242905827|-2.849080801010132|0.5111061930656433|-1.213468313217163|-0.8675878643989563|-0.2098357677459717|0.1658582091331482|XArbitraryZVertical|0.1392853608553133|0.4969270304635221|-0.5989646572530205|-0.6122943478634268|-0.4416772127151489|0.7658507227897644|-0.4673262238502502|0|0|0|-1|-1|3
2021-03-04 23:18:15.436 +0000|234961.440982|-1.386520385742188|0.2805633544921875|-0.183624267578125|234961.42102|1.080307266105574|-0.8232975175715042|-0.9001009242484247|-3.59705924987793|0.771860659122467|-1.355355739593506|-0.9262241125106812|-0.3608279824256897|0.1889087855815887|XArbitraryZVertical|0.1566323947434524|0.5140096524814214|-0.573653168009246|-0.6182089931251831|-0.4558254480361938|0.7833896279335022|-0.4225207269191742|0|0|0|-1|-1|3
2021-03-04 23:18:15.456 +0000|234961.460944|-1.259429931640625|0.205963134765625|-0.2769622802734375|234961.440982|0.9603390027770737|-0.90222689473886|-0.9267148399357147|-3.660005331039429|0.8520624041557312|-1.438272953033447|-0.9428421258926392|-0.5480188727378845|0.1985154747962952|XArbitraryZVertical|0.1766032816710579|0.5317030983092351|-0.5447068433708642|-0.6240172996162168|-0.4711898267269135|0.7996516227722168|-0.3722061812877655|0|0|0|-1|-1|3
2021-03-04 23:18:15.476 +0000|234961.480906|-1.054977416992188|0.0875091552734375|-0.3081207275390625|234961.460944|0.8348326085697175|-0.9868589776595876|-0.9432845523729827|-3.383233785629272|0.7326116561889648|-1.580587029457092|-0.85032057762146|-0.5504729747772217|0.08829650282859802|XArbitraryZVertical|0.1947413494915484|0.5479314900977048|-0.5147856952931551|-0.6299544111575215|-0.4898436069488525|0.8094909191131592|-0.3236937820911407|0|0|0|-1|-1|3
2021-03-04 23:18:15.496 +0000|234961.500868|-0.8434906005859375|-0.173675537109375|-0.3370208740234375|234961.480906|0.7146418398328047|-1.07001655479706|-0.9452543112101351|-2.767965316772461|0.6710208654403687|-1.853431582450867|-0.6571232676506042|-0.6642071604728699|-0.01743155717849731|XArbitraryZVertical|0.2081017818428014|0.5622567897159628|-0.4853426425374916|-0.6363988669418892|-0.5136378407478333|0.8106458783149719|-0.2811219096183777|0|0|0|-1|-1|3
2021-03-04 23:18:15.516 +0000|234961.52083|-0.7241973876953125|-0.2522125244140625|-0.317718505859375|234961.500868|0.6112885437943579|-1.139828970702972|-0.9315559081526466|-2.046190500259399|0.6959511637687683|-2.112655639648438|-0.3890252709388733|-0.8186929225921631|-0.07612405717372894|XArbitraryZVertical|0.2155462106498531|0.5735223962367045|-0.457454836741347|-0.6444742309808857|-0.5420355200767517|0.8025491237640381|-0.2492237836122513|0|0|0|-1|-1|3
2021-03-04 23:18:15.536 +0000|234961.540792|-0.719024658203125|-0.2145843505859375|-0.342742919921875|234961.52083|0.5348502060483491|-1.18619049665584|-0.902877515379219|-1.250843048095703|0.7905728816986084|-2.386140584945679|-0.2055861353874207|-1.072145462036133|-0.09255826473236084|XArbitraryZVertical|0.215994441090718|0.5806527449057816|-0.4323396671196352|-0.6551879901995795|-0.5741074681282043|0.7851123809814453|-0.2323775887489319|0|0|0|-1|-1|3
2021-03-04 23:18:15.556 +0000|234961.560754|-0.6080474853515625|-0.0303497314453125|-0.3389434814453125|234961.540792|0.4754312704004788|-1.211129536978651|-0.8623412988883762|-0.711997926235199|1.267323970794678|-2.770898342132568|-0.1188769936561584|-0.9552145600318909|-0.07534343004226685|XArbitraryZVertical|0.2121795106212755|0.5835029471605493|-0.4070992891793719|-0.669906261484767|-0.6090282797813416|0.7593680620193481|-0.2290083318948746|0|0|0|-1|-1|3
2021-03-04 23:18:15.576 +0000|234961.580715|-0.5929107666015625|0.0226898193359375|-0.2886199951171875|234961.560754|0.4293367551395416|-1.218657140327918|-0.8081345302981131|-0.4191359877586365|1.374275922775269|-3.450754404067993|0.005358994007110596|-0.8474960923194885|-0.1156036257743835|XArbitraryZVertical|0.2029060184013848|0.58282937640168|-0.3804667403560518|-0.6887555445236093|-0.6484559178352356|0.7229996919631958|-0.2382781356573105|0|0|0|-1|-1|3
2021-03-04 23:18:15.596 +0000|234961.600677|-0.596710205078125|0.1844635009765625|-0.2043609619140625|234961.580715|0.3774841424886938|-1.22922725643086|-0.7407601226557385|-0.8590261936187744|1.192442297935486|-4.135389804840088|0.09518080949783325|-0.6772599220275879|-0.07702860236167908|XArbitraryZVertical|0.189620882188005|0.5834799953288934|-0.3479137312085692|-0.7089083117741921|-0.6953242421150208|0.6748490333557129|-0.2471900284290314|0|0|0|-1|-1|3
2021-03-04 23:18:15.616 +0000|234961.620639|-0.541259765625|0.3206939697265625|-0.203216552734375|234961.600677|0.3107637377257116|-1.249469095287775|-0.6640954471574695|-1.482823491096497|1.120867967605591|-4.747234344482422|0.1463393568992615|-0.541090726852417|-0.009366735816001892|XArbitraryZVertical|0.1756519950823745|0.5871914761822862|-0.3070324870389558|-0.7280684567402013|-0.7471694350242615|0.616347074508667|-0.2487050890922546|0|0|0|-1|-1|3
2021-03-04 23:18:15.636 +0000|234961.640601|-0.5679473876953125|0.4985809326171875|-0.261627197265625|234961.620639|0.2311072741199154|-1.273535748327317|-0.5801741579952044|-2.130488872528076|1.137563824653625|-5.224875926971436|0.2221715450286865|-0.2898535132408142|0.05764156579971313|XArbitraryZVertical|0.1627541444303713|0.5924730007416025|-0.2577704030369968|-0.7456817692980123|-0.7996862530708313|0.5481696128845215|-0.2449736595153809|0|0|0|-1|-1|3
2021-03-04 23:18:15.656 +0000|234961.660563|-0.7789306640625|0.61297607421875|-0.3614501953125|234961.640601|0.1414322022759835|-1.295622685945673|-0.4891060258842332|-2.671154022216797|1.226600646972656|-5.690711498260498|0.3087708353996277|-0.06151169538497925|0.01799376308917999|XArbitraryZVertical|0.1512187218138746|0.5976660221113121|-0.2004080168551136|-0.7614228921233597|-0.8495423197746277|0.4698369204998016|-0.2398564517498016|0|0|0|-1|-1|3
2021-03-04 23:18:15.676 +0000|234961.680525|-0.998992919921875|0.6271820068359375|-0.44842529296875|234961.660563|0.04889820169556825|-1.311190874420536|-0.3905633497748193|-2.68603515625|1.222677946090698|-6.065449237823486|0.248522162437439|0.1255162358283997|-0.09199237823486328|XArbitraryZVertical|0.1391487270088783|0.6016256321979968|-0.1372694238868503|-0.7744943085567177|-0.8937095403671265|0.3807094097137451|-0.2373684644699097|0|0|0|-1|-1|3
2021-03-04 23:18:15.696 +0000|234961.700487|-1.265289306640625|0.67791748046875|-0.3332977294921875|234961.680525|-0.0377832659419062|-1.317626247082889|-0.2855604464305838|-2.610236883163452|0.9518406987190247|-6.188866138458252|0.06696432828903198|0.3701602220535278|-0.1505380123853683|XArbitraryZVertical|0.1239424956856505|0.603715781465172|-0.07230970206239218|-0.7841791001849931|-0.9289181232452393|0.2816952466964722|-0.2403310239315033|0|0|0|-1|-1|3
2021-03-04 23:18:15.716 +0000|234961.720449|-1.399993896484375|0.4256134033203125|-0.219085693359375|234961.700487|-0.1226755737585559|-1.322261414356738|-0.1797761593033819|-2.735595226287842|0.6733177900314331|-6.082215309143066|-0.1587281227111816|0.4649895131587982|-0.1925656795501709|XArbitraryZVertical|0.1082061973453423|0.6060375379434513|-0.006826061526949367|-0.7880123774123802|-0.9536529183387756|0.1788093447685242|-0.242019847035408|0|0|0|-1|-1|3
2021-03-04 23:18:15.736 +0000|234961.740411|-1.611373901367188|0.54803466796875|-0.1836700439453125|234961.720449|-0.2061922804762102|-1.320556436550687|-0.08243166233371174|-2.721630811691284|0.7057196497917175|-5.398097038269043|-0.383908748626709|0.5104045867919922|0.01921075582504272|XArbitraryZVertical|0.09543820754971023|0.606212649341786|0.05607652819759984|-0.7875616369246318|-0.9655633568763733|0.08233834058046341|-0.2467955499887466|0|0|0|-1|-1|3
2021-03-04 23:18:15.756 +0000|234961.760372|-1.317794799804688|0.863922119140625|-0.12109375|234961.740411|-0.2763253272231325|-1.30464017080024|0.001091612629965768|-1.837899088859558|1.281359791755676|-4.47943115234375|-0.5340823531150818|0.3822866976261139|0.05860283970832825|XArbitraryZVertical|0.08317292449719411|0.6013068190945371|0.109773940084489|-0.7870591652371524|-0.9647884964942932|-0.001091612386517227|-0.2630247473716736|0|0|0|-1|-1|3
2021-03-04 23:18:15.776 +0000|234961.780334|-1.134857177734375|0.88983154296875|0.2620849609375|234961.760372|-0.3206154620553565|-1.26982920475237|0.07094933778889903|-0.4647117555141449|1.893016815185547|-3.257184028625488|-0.5660445690155029|0.8750737905502319|0.1365948915481567|XArbitraryZVertical|0.06642430615135554|0.5896937414961863|0.1492005851051209|-0.7909414495819761|-0.9526475071907043|-0.07088983058929443|-0.2956981956958771|0|0|0|-1|-1|3
2021-03-04 23:18:15.796 +0000|234961.800296|-0.7558441162109375|0.5452117919921875|-0.0879058837890625|234961.780334|-0.3399165150392611|-1.224203982199879|0.1177549619187495|-0.3311361074447632|2.528028249740601|-1.794488549232483|-0.3294968605041504|0.9621485471725464|0.4348613023757935|XArbitraryZVertical|0.04955220442527254|0.5734748427234766|0.1715160607891699|-0.7995333266224721|-0.9340224862098694|-0.1174830123782158|-0.337342381477356|0|0|0|-1|-1|3
2021-03-04 23:18:15.816 +0000|234961.820258|-0.6956329345703125|0.3646240234375|-0.3492889404296875|234961.800296|-0.3654101163154165|-1.167826523087216|0.1340136763141414|-1.330199122428894|2.729355573654175|-0.8419563770294189|0.001099288463592529|0.8914711475372314|0.4936163425445557|XArbitraryZVertical|0.04500681434225462|0.5510503378614258|0.1875445140475052|-0.8118774954684692|-0.9116523265838623|-0.1336129009723663|-0.3886358141899109|0|0|0|-1|-1|3
2021-03-04 23:18:15.836 +0000|234961.8402200417|-1.19720458984375|0.609039306640625|-0.1033172607421875|234961.820258|-0.4026304340466446|-1.114962221912963|0.1309201647432749|-2.100701332092285|1.831504821777344|-0.4723570644855499|0.2135133743286133|0.4910964071750641|0.199398934841156|XArbitraryZVertical|0.05117326051102188|0.5283551909890116|0.2032272018657413|-0.8227520131166929|-0.8902102112770081|-0.1305464953184128|-0.4364441931247711|0|0|0|-1|-1|3
2021-03-04 23:18:15.856 +0000|234961.8601820417|-1.393966674804688|0.49627685546875|0.2318572998046875|234961.8402200417|-0.4453479311036497|-1.085709015579474|0.1163817350287098|-2.290973424911499|0.6703303456306458|-0.09965317696332932|0.01561278104782104|0.6394193172454834|0.09403657913208008|XArbitraryZVertical|0.06532044077822388|0.5139723473078562|0.2180716854853299|-0.8270492671379768|-0.8786500096321106|-0.1161191835999489|-0.4631313383579254|0|0|0|-1|-1|3
2021-03-04 23:18:15.876 +0000|234961.8801440417|-1.283706665039062|0.0597381591796875|-0.0589447021484375|234961.8601820417|-0.4844476088686081|-1.07475751182584|0.08873149615695002|-2.356791496276855|0.07121202349662781|0.749176025390625|-0.4999922513961792|0.7341076731681824|0.6800668835639954|XArbitraryZVertical|0.08567342693095915|0.5055922208260322|0.2278915874382575|-0.8277089251934038|-0.8760148882865906|-0.08861510455608368|-0.4740731418132782|0|0|0|-1|-1|3
2021-03-04 23:18:15.896 +0000|234961.9001060417|-1.089996337890625|0.2285614013671875|-0.1302490234375|234961.8801440417|-0.5114516358668119|-1.076665424424492|0.04873357785402684|-1.774522662162781|-0.3585751354694366|1.385773897171021|-0.4630865454673767|0.304817795753479|0.5350287556648254|XArbitraryZVertical|0.1094109825397054|0.5011760471016413|0.2291930024862982|-0.8272377769361023|-0.8793359994888306|-0.0487142913043499|-0.4737036228179932|0|0|0|-1|-1|3
2021-03-04 23:18:15.916 +0000|234961.9200680417|-1.099456787109375|0.3838958740234375|-0.2694549560546875|234961.9001060417|-0.521082264801536|-1.087674374371162|0.00794990726091192|-1.019156575202942|-0.8888221979141235|1.722776174545288|-0.3499831557273865|0.1134033054113388|0.3566823601722717|XArbitraryZVertical|0.1300023047027469|0.5008329942005061|0.2224244579918119|-0.8263130085631217|-0.8855209946632385|-0.007949823513627052|-0.464531421661377|0|0|0|-1|-1|3
2021-03-04 23:18:15.936 +0000|234961.9400290417|-1.240310668945312|0.329742431640625|0.0239715576171875|234961.9200680417|-0.5190208199257959|-1.113948633366472|-0.02967433409906815|-0.6311796307563782|-1.648248553276062|1.686714172363281|-0.1314815878868103|0.2980735301971436|0.2207733690738678|XArbitraryZVertical|0.1478054238198362|0.5076317856377124|0.2102190454544045|-0.8223572309153362|-0.8970523476600647|0.0296699795871973|-0.4409270584583282|0|0|0|-1|-1|3
2021-03-04 23:18:15.955 +0000|234961.9599910417|-1.2623291015625|0.3111724853515625|0.1212921142578125|234961.9400290417|-0.5171267682975438|-1.146902520988424|-0.06649923679713357|-0.8275488018989563|-1.52861213684082|1.713409662246704|-0.2663474082946777|0.3356493711471558|0.2793612480163574|XArbitraryZVertical|0.1656423416515771|0.5170694080777092|0.1972349011047099|-0.8162722782296612|-0.9094797372817993|0.06645023822784424|-0.4104036688804626|0|0|0|-1|-1|3
2021-03-04 23:18:15.975 +0000|234961.9799530417|-1.540908813476562|0.41802978515625|0.152008056640625|234961.9599910417|-0.5246195872865617|-1.174852127770692|-0.1079558401985642|-1.530531764030457|-1.184303760528564|1.813636541366577|-0.3363088965415955|0.1884573400020599|0.4766807556152344|XArbitraryZVertical|0.1868783334502828|0.5228377896600399|0.1866508465255787|-0.8104805256758769|-0.9172617197036743|0.1077462658286095|-0.3834342658519745|0|0|0|-1|-1|3
2021-03-04 23:18:15.996 +0000|234961.9999150417|-1.257568359375|0.3119659423828125|-0.5863037109375|234961.9799530417|-0.5388989112399182|-1.189645038745892|-0.151459895752061|-1.384676218032837|0.4502376914024353|1.588314056396484|-0.3372876644134521|0.1784489750862122|0.8164308667182922|XArbitraryZVertical|0.2091433898081256|0.5219134321644627|0.1789824622896142|-0.8073603906400201|-0.9176104664802551|0.1508814692497253|-0.3677308261394501|0|0|0|-1|-1|3
2021-03-04 23:18:16.015 +0000|234962.0198770417|-1.308212280273438|0.3223419189453125|-0.5098114013671875|234961.9999150417|-0.5338517508017993|-1.162314070425637|-0.1816738756240427|-0.02674551494419575|1.592843055725098|1.342962622642517|-0.679486095905304|-0.1401640772819519|-0.01145029067993164|XArbitraryZVertical|0.2173436553865821|0.5073675596249388|0.1715187310525268|-0.8160400017231989|-0.9026214480400085|0.1806761473417282|-0.3906797766685486|0|0|0|-1|-1|3
2021-03-04 23:18:16.035 +0000|234962.0398390417|-1.679031372070312|0.0534515380859375|0.26251220703125|234962.0198770417|-0.5264861652308002|-1.140385412831304|-0.2029162356625047|-0.07031998783349991|0.3613852560520172|0.9358082413673401|-0.3056063055992126|0.1612511277198792|-0.3775711059570312|XArbitraryZVertical|0.2220628474618652|0.496332778898354|0.1651311192679719|-0.8228448969750343|-0.8901487588882446|0.2015265822410583|-0.408683717250824|0|0|0|-1|-1|3
2021-03-04 23:18:16.056 +0000|234962.0598010417|-2.066314697265625|0.1833038330078125|-0.3537139892578125|234962.0398390417|-0.5515055395540974|-1.148422229116492|-0.2227316723550011|-3.240825176239014|-1.10743522644043|-0.02499678358435631|-0.5645909905433655|0.2387916445732117|0.5292260050773621|XArbitraryZVertical|0.2367608271668983|0.4940079330527681|0.1691032908943774|-0.8193318478567497|-0.8895869255065918|0.2208946347236633|-0.3998009562492371|0|0|0|-1|-1|3
2021-03-04 23:18:16.075 +0000|234962.0797630417|-1.635406494140625|0.387939453125|-0.387359619140625|234962.0598010417|-0.622883786782867|-1.187705001510116|-0.2435056687203709|-3.00635027885437|-0.9331549406051636|-0.4532910585403442|-0.8817707300186157|-0.3089011311531067|0.6890715360641479|XArbitraryZVertical|0.2660130109175637|0.4978513346876794|0.1873974116339804|-0.8039051350972477|-0.9001507759094238|0.2411063462495804|-0.3627622425556183|0|0|0|-1|-1|3
2021-03-04 23:18:16.095 +0000|234962.0997250417|-1.992279052734375|-0.610504150390625|-0.752410888671875|234962.0797630417|-0.6548879175274578|-1.213008794402598|-0.2484601276464865|-1.25745165348053|-1.329339027404785|-0.1106723621487617|-0.9380059838294983|0.3649434447288513|-0.232328474521637|XArbitraryZVertical|0.278313658086248|0.5028092197843838|0.1953479388727285|-0.7947097486591085|-0.9079107642173767|0.2459116578102112|-0.3394487798213959|0|0|0|-1|-1|3
2021-03-04 23:18:16.115 +0000|234962.1196860417|-1.507598876953125|0.22265625|-0.4897308349609375|234962.0997250417|-0.7097544397937597|-1.267571958936515|-0.2670117523600452|-4.218254566192627|-2.546939373016357|0.09864668548107147|-0.7434577941894531|-0.8471937775611877|-0.1873239874839783|XArbitraryZVertical|0.3045187971794777|0.5130881146915838|0.2035852638157058|-0.776248669577888|-0.9205589890480042|0.2638502717018127|-0.2880177795886993|0|0|0|-1|-1|3
2021-03-04 23:18:16.135 +0000|234962.1396480417|-1.864242553710938|-0.343170166015625|0.209869384765625|234962.1196860417|-0.8085146587294642|-1.364854978457052|-0.2914039581219543|-5.641188144683838|-4.444217681884766|-0.1573968082666397|-0.8447321653366089|0.003870904445648193|-0.4549652934074402|XArbitraryZVertical|0.349029818126456|0.529381063159621|0.21782615499389|-0.7419471535758545|-0.9376012086868286|0.2872972786426544|-0.1958677470684052|0|0|0|-1|-1|3
2021-03-04 23:18:16.155 +0000|234962.1596100417|-2.025848388671875|0.4579925537109375|0.96759033203125|234962.1396480417|-0.9333597057120845|-1.501196860467047|-0.302466094628902|-5.988863945007324|-5.487122535705566|-0.2762578725814819|-0.6865003108978271|-0.6938713788986206|-0.1581313610076904|XArbitraryZVertical|0.401771242875416|0.552618030663953|0.2334937860035688|-0.6918626184462092|-0.9522936940193176|0.2978752553462982|-0.06638636440038681|0|0|0|-1|-1|3
2021-03-04 23:18:16.175 +0000|234962.1795720417|-1.889846801757812|0.2912445068359375|0.527740478515625|234962.1596100417|-1.063407437374927|-1.636028551893791|-0.30032486566112|-6.317025661468506|-3.577274560928345|-0.125346913933754|-0.9380570650100708|-0.08788380026817322|0.7753936052322388|XArbitraryZVertical|0.4539981120819234|0.5701051247847889|0.2486193828278498|-0.6380080667815564|-0.9532088041305542|0.2958305478096008|0.06226827949285507|0|0|0|-1|-1|3
2021-03-04 23:18:16.195 +0000|234962.1995340417|-1.586746215820312|0.067474365234375|0.065460205078125|234962.1795720417|-1.179907552565693|-1.723069618269694|-0.2863382919391276|-5.264906406402588|-1.945541739463806|0.0582694336771965|-1.092358112335205|0.1032396554946899|0.5658705234527588|XArbitraryZVertical|0.4950590677678217|0.5724258126487984|0.2686407681171787|-0.5958837692301345|-0.948184609413147|0.2824414968490601|0.1455095857381821|0|0|0|-1|-1|3
2021-03-04 23:18:16.215 +0000|234962.2194960417|-1.506622314453125|0.542816162109375|0.2921600341796875|234962.1995340417|-1.281083916106585|-1.785588422240421|-0.2705492369295537|-4.369327068328857|-1.752103090286255|0.1267993152141571|-0.7977005839347839|-0.1799957752227783|0.01386259496212006|XArbitraryZVertical|0.5290210552571024|0.5681832811881264|0.2872181260311986|-0.5610795672778858|-0.9414809346199036|0.267260730266571|0.2053910344839096|0|0|0|-1|-1|3
2021-03-04 23:18:16.235 +0000|234962.2394580417|-1.639739990234375|0.862762451171875|0.23095703125|234962.2194960417|-1.351104505029381|-1.840168406224064|-0.2531389538482658|-2.502195835113525|-1.944313645362854|-0.1348016709089279|-0.5753721594810486|0.07546836137771606|-0.1179813146591187|XArbitraryZVertical|0.5532347900843519|0.5681142497850976|0.2973876474455168|-0.5317312267675584|-0.9332185387611389|0.2504441142082214|0.2576450705528259|0|0|0|-1|-1|3
2021-03-04 23:18:16.255 +0000|234962.2594200417|-0.798004150390625|-1.013916015625|-0.7239532470703125|234962.2394580417|-1.37384093091681|-1.868945067628476|-0.2273433903148913|0.4137916266918182|-0.0744478702545166|-1.933742523193359|-0.7679634690284729|0.5709356069564819|0.1660628318786621|XArbitraryZVertical|0.5588697758848635|0.5751181026708866|0.3038748716296635|-0.5143577042171568|-0.9312857985496521|0.2253900766372681|0.2861925065517426|0|0|0|-1|-1|3
2021-03-04 23:18:16.275 +0000|234962.2793820417|-0.8609619140625|0.6270294189453125|0.2290802001953125|234962.2594200417|-1.327430390880346|-1.85118428147384|-0.1940683120153151|4.682745933532715|-0.8225735425949097|-1.076027870178223|-0.5303117632865906|-0.0003475993871688843|-0.6477237939834595|XArbitraryZVertical|0.5357852336093559|0.5905091089967353|0.3077508708731632|-0.5191555971286061|-0.9429089426994324|0.1928524225950241|0.2715336382389069|0|0|0|-1|-1|3
2021-03-04 23:18:16.297 +0000|234962.2993430417|-1.720672607421875|0.394134521484375|0.4655303955078125|234962.2793820417|-1.222852850141936|-1.874154338785779|-0.2052970286498842|4.655575275421143|-2.796005249023438|-0.9721326231956482|0.3420435190200806|-0.5642248392105103|-0.2139774560928345|XArbitraryZVertical|0.5098245234004535|0.621534957590814|0.2705113209109437|-0.5297140683041577|-0.9342982172966003|0.203857958316803|0.2924534976482391|0|0|0|-1|-1|3
2021-03-04 23:18:16.315 +0000|234962.3193050417|-1.163894653320312|-0.4382781982421875|-0.30535888671875|234962.2993430417|-1.157568134530366|-1.904698013994689|-0.2040520663279685|1.561531782150269|-0.5476402640342712|-1.264631271362305|-0.3599097728729248|0.663922905921936|0.06159010529518127|XArbitraryZVertical|0.4928037438771458|0.6462280737855707|0.246020459430409|-0.5282119356807923|-0.925170361995697|0.2026389837265015|0.3209325075149536|0|0|0|-1|-1|3
2021-03-04 23:18:16.335 +0000|234962.3392670417|-1.227081298828125|1.258636474609375|0.4628448486328125|234962.3193050417|-1.11593623487754|-1.907141396313942|-0.1990454517556026|3.263848304748535|-1.464869737625122|0.1628672182559967|-0.8897646069526672|-0.6381634473800659|-0.4421598613262177|XArbitraryZVertical|0.4784187386621699|0.6579337990588841|0.2361871921294006|-0.5314641251630007|-0.9253292083740234|0.1977337151765823|0.3235227465629578|0|0|0|-1|-1|3
2021-03-04 23:18:16.359 +0000|234962.3592290417|-1.36566162109375|0.832183837890625|0.357421875|234962.3392670417|-1.03931795602184|-1.913093383499673|-0.2233179901265512|3.769037246704102|-0.7927974462509155|-0.2805459797382355|-0.1304927468299866|0.4820095300674438|0.07543888688087463|XArbitraryZVertical|0.4590271210594286|0.6730175122491834|0.2053836550389841|-0.5423644968771713|-0.9185949563980103|0.2214664369821548|0.32731693983078|0|0|0|-1|-1|3
2021-03-04 23:18:16.374 +0000|234962.3791910417|-1.041290283203125|0.4132537841796875|0.1593780517578125|234962.3592290417|-0.9590451834346458|-1.898318817370191|-0.2505746755511384|4.633534908294678|0.4657977223396301|0.4389351308345795|-0.4551640152931213|0.9386695027351379|0.05529177188873291|XArbitraryZVertical|0.4366732313501796|0.6820134195969793|0.1764461060987245|-0.5595006952110104|-0.9172725677490234|0.2479607313871384|0.3116516172885895|0|0|0|-1|-1|3
2021-03-04 23:18:16.394 +0000|234962.3991530417|-1.1915283203125|0.5014801025390625|0.050262451171875|234962.3791910417|-0.889066047454417|-1.872047773426081|-0.290164171210322|2.649153470993042|-0.08368552476167679|1.160448789596558|-0.2937710881233215|0.2714313864707947|0.04086819291114807|XArbitraryZVertical|0.4200294719877348|0.682445031471119|0.1472321985576815|-0.5797989600098553|-0.9150455594062805|0.2861095368862152|0.2843119502067566|0|0|0|-1|-1|3
2021-03-04 23:18:16.414 +0000|234962.4191150417|-1.12628173828125|0.644256591796875|0.200439453125|234962.3991530417|-0.8607796244007744|-1.866128780878303|-0.3262565237714114|1.385385990142822|0.05074957013130188|1.474910974502563|-0.1445889472961426|0.06066527962684631|-0.2216576337814331|XArbitraryZVertical|0.4186426223493934|0.6801400555429736|0.1265226590257784|-0.5883365781627607|-0.9062380790710449|0.3204992711544037|0.2757042944431305|0|0|0|-1|-1|3
2021-03-04 23:18:16.434 +0000|234962.4390770417|-1.056640625|0.206329345703125|-0.051116943359375|234962.4191150417|-0.8581569876241372|-1.860978004832592|-0.3643567236152659|-0.3472891449928284|0.4315741360187531|1.9916752576828|-0.3003432750701904|0.2489067614078522|-0.1765380203723907|XArbitraryZVertical|0.4265288837302906|0.6721195040404787|0.1123281083269139|-0.5947359782398226|-0.8952896595001221|0.3563483357429504|0.2673430442810059|0|0|0|-1|-1|3
2021-03-04 23:18:16.454 +0000|234962.4590390417|-0.8022613525390625|0.107086181640625|-0.1856842041015625|234962.4390770417|-0.8961065996363571|-1.861197988523613|-0.3906469370213446|-1.621061682701111|0.9226549863815308|1.649581670761108|-0.2068728804588318|0.1102258861064911|0.01701879501342773|XArbitraryZVertical|0.4453128021281848|0.6588468447667079|0.1135729696985116|-0.5955825617097111|-0.8859463930130005|0.3807866871356964|0.2647653222084045|0|0|0|-1|-1|3
2021-03-04 23:18:16.474 +0000|234962.4790010417|-0.7277984619140625|0.39691162109375|0.198699951171875|234962.4590390417|-0.9529602494112059|-1.873177861807817|-0.4127676201053164|-2.253307819366455|0.09282048791646957|1.999506831169128|-0.06696689128875732|-0.3496323525905609|-0.6115443706512451|XArbitraryZVertical|0.4695237137374214|0.6449337185456648|0.1193168646787402|-0.5910766190932768|-0.87445467710495|0.4011460542678833|0.272784024477005|0|0|0|-1|-1|3
2021-03-04 23:18:16.494 +0000|234962.4989620417|-0.70941162109375|0.27667236328125|0.4194183349609375|234962.4790010417|-1.019051972060114|-1.896876864870393|-0.4279077601850903|-2.156930208206177|0.245426282286644|1.649196743965149|0.03886371850967407|0.2139075696468353|-0.1126780807971954|XArbitraryZVertical|0.4953276695151346|0.6327523554580252|0.127257753118891|-0.5814468266050928|-0.8618922829627991|0.4149681031703949|0.2914500832557678|0|0|0|-1|-1|3
2021-03-04 23:18:16.514 +0000|234962.5189240417|-0.596649169921875|0.0968170166015625|0.34527587890625|234962.4989620417|-1.064718615997673|-1.906753372600051|-0.4475692877910116|-1.431413173675537|0.7316370606422424|1.486186861991882|0.1379992365837097|-0.2486630082130432|-0.03137722611427307|XArbitraryZVertical|0.5142360920730858|0.6198076870536612|0.1306124304291204|-0.5782214721132247|-0.8511034846305847|0.4327755272388458|0.2972006499767303|0|0|0|-1|-1|3
2021-03-04 23:18:16.534 +0000|234962.5388860417|-0.364105224609375|0.1468353271484375|0.0870513916015625|234962.5189240417|-1.107789780621903|-1.905222004099245|-0.4681857317097034|-1.375763297080994|1.242211222648621|1.683805584907532|0.1767657995223999|-0.1974686086177826|0.1787435710430145|XArbitraryZVertical|0.5312996401766824|0.6034679417815672|0.1357661535940688|-0.5788908864881617|-0.8429492115974426|0.4512679874897003|0.29290571808815|0|0|0|-1|-1|3
2021-03-04 23:18:16.554 +0000|234962.5588480417|-0.308258056640625|0.39013671875|0.4794921875|234962.5388860417|-1.14304451422856|-1.900330153677436|-0.4950151227364615|-0.6626670360565186|0.6573640108108521|1.910495400428772|0.3579586148262024|-0.441139817237854|-0.08848339319229126|XArbitraryZVertical|0.5464598637062956|0.586310757550196|0.1373536695049601|-0.582027033492177|-0.8326139450073242|0.4750449657440186|0.2847573757171631|0|0|0|-1|-1|3
2021-03-04 23:18:16.574 +0000|234962.5788100417|-0.532745361328125|-0.2279815673828125|0.2041015625|234962.5588480417|-1.157396988432591|-1.896643986805143|-0.5327565156045043|-0.3421331346035004|0.6896464228630066|2.106464385986328|0.5208250880241394|-0.2133693695068359|-0.07514047622680664|XArbitraryZVertical|0.5571691542513278|0.5722205986923565|0.1285988477432264|-0.5878677714173766|-0.8160827159881592|0.5079097747802734|0.2757477462291718|0|0|0|-1|-1|3
2021-03-04 23:18:16.594 +0000|234962.5987720417|-0.38385009765625|0.86456298828125|0.4556427001953125|234962.5788100417|-1.208463899003279|-1.902451201104038|-0.5649318129383016|-1.276386141777039|1.448634743690491|2.211856126785278|0.3650491237640381|-0.4543798565864563|0.1712112128734589|XArbitraryZVertical|0.577394803776573|0.551474065532939|0.1300920858642856|-0.587849980015302|-0.7985970377922058|0.5353582501411438|0.2750168144702911|0|0|0|-1|-1|3
2021-03-04 23:18:16.614 +0000|234962.6187340417|-0.2996368408203125|0.584808349609375|-0.10211181640625|234962.5987720417|-1.242479241370955|-1.884419853919732|-0.6009588390991203|-0.6635434627532959|2.148787498474121|2.195107698440552|0.2988748550415039|-0.3408089280128479|0.1542822122573853|XArbitraryZVertical|0.5912160202713097|0.5269640983447705|0.1322347269225137|-0.5960591906276955|-0.7845621705055237|0.5654335618019104|0.2544550895690918|0|0|0|-1|-1|3
2021-03-04 23:18:16.634 +0000|234962.6386960417|-0.332489013671875|-0.002044677734375|-0.0024261474609375|234962.6187340417|-1.262250804327|-1.854659796091223|-0.6443591322459821|0.3310278356075287|1.753705382347107|2.247438669204712|0.4769473075866699|0.3216922283172607|-0.07721094787120819|XArbitraryZVertical|0.601143476156154|0.500580668264289|0.13128396095691|-0.6089416692287968|-0.7674898505210876|0.6006861925125122|0.2239089757204056|0|0|0|-1|-1|3
2021-03-04 23:18:16.654 +0000|234962.6586570417|-0.3496551513671875|-0.1789703369140625|-0.1182708740234375|234962.6386960417|-1.276101843990096|-1.831968386611396|-0.6893101022360772|-0.5871716141700745|1.422282814979553|2.339992761611938|0.4419114589691162|-0.4644961953163147|-0.1383612453937531|XArbitraryZVertical|0.6099337562769194|0.4770852927300001|0.1261499881849045|-0.6200456608430293|-0.7455155849456787|0.6360049247741699|0.1992591321468353|0|0|0|-1|-1|3
2021-03-04 23:18:16.674 +0000|234962.6786190417|-0.3756103515625|0.00433349609375|0.1490325927734375|234962.6586570417|-1.313818905145685|-1.830568783491194|-0.7303377702368775|-0.9573719501495361|1.195956945419312|2.333611011505127|0.3753198981285095|-0.7912668585777283|-0.2838163375854492|XArbitraryZVertical|0.624559160669887|0.4534312614235675|0.1235245808153566|-0.6237528458059224|-0.7199549078941345|0.6671212911605835|0.1913481056690216|0|0|0|-1|-1|3
2021-03-04 23:18:16.694 +0000|234962.6985810417|-0.441162109375|0.16400146484375|0.395599365234375|234962.6786190417|-1.354321815671196|-1.834970733491665|-0.7671449048966206|-0.6486698389053345|1.161606907844543|1.938556551933289|0.3364158868789673|-0.7949280142784119|-0.1769261360168457|XArbitraryZVertical|0.6386766566349833|0.4313686976545303|0.1215720508813225|-0.6254866583107351|-0.6949211955070496|0.6940826773643494|0.1879736483097076|0|0|0|-1|-1|3
2021-03-04 23:18:16.714 +0000|234962.7185430417|-0.57568359375|-0.0117645263671875|0.61627197265625|234962.6985810417|-1.375121223027377|-1.825728334239149|-0.7981019623539456|-0.01492425892502069|1.231938242912292|1.439120173454285|0.2878257036209106|-0.6070847511291504|0.1645531505346298|XArbitraryZVertical|0.6463263274940131|0.4126516759000324|0.1200004866905558|-0.6305400176257863|-0.6755057573318481|0.7160324454307556|0.1760382503271103|0|0|0|-1|-1|3
2021-03-04 23:18:16.734 +0000|234962.7385050417|-0.503387451171875|-0.3133697509765625|0.305267333984375|234962.7185430417|-1.369232573010066|-1.793033618845373|-0.8241644505921971|1.060291051864624|1.83066725730896|0.9718099236488342|0.1503825783729553|-0.6578087210655212|0.3341128826141357|XArbitraryZVertical|0.6463425929325264|0.3963458977555013|0.1193973047797672|-0.641011308087892|-0.6624675393104553|0.7339805364608765|0.1496976315975189|0|0|0|-1|-1|3
2021-03-04 23:18:16.754 +0000|234962.7584670417|-0.1634063720703125|-0.8006134033203125|0.215545654296875|234962.7385050417|-1.339896079835182|-1.722528444137889|-0.8435747287707616|1.024935603141785|2.966406106948853|0.6092779040336609|0.07080924510955811|-0.8577115535736084|0.4324593544006348|XArbitraryZVertical|0.6388653018240098|0.3769526941030081|0.1256202125021685|-0.6587696251077988|-0.6571587324142456|0.7470243573188782|0.1004844158887863|0|0|0|-1|-1|3
2021-03-04 23:18:16.774 +0000|234962.7784290417|-0.0592041015625|-0.300994873046875|0.1904754638671875|234962.7584670417|-1.330073639831568|-1.656170771814521|-0.8532906047506778|-0.2656503021717072|2.70949387550354|0.1430892497301102|0.3213419914245605|-1.350326061248779|0.1602425575256348|XArbitraryZVertical|0.634043061935293|0.3549964548113007|0.140046448511582|-0.6725726643042627|-0.6551128029823303|0.7534480690956116|0.05606617406010628|0|0|0|-1|-1|3
2021-03-04 23:18:16.794 +0000|234962.7983910417|-0.2762451171875|0.1200408935546875|-0.0978546142578125|234962.7784290417|-1.345212957142566|-1.623449352205904|-0.8456148303002137|-0.9411173462867737|1.723068714141846|-0.6979554891586304|0.5902849435806274|-1.439235925674438|0.08171582221984863|XArbitraryZVertical|0.6330847428084916|0.341551263041367|0.1581932215350861|-0.6764033187095679|-0.6623522639274597|0.7483790516853333|0.03490711376070976|0|0|0|-1|-1|3
2021-03-04 23:18:16.813 +0000|234962.8183530417|-0.40802001953125|0.1991119384765625|0.072845458984375|234962.7983910417|-1.369137627317714|-1.615069807935356|-0.8241656711188684|-0.529693603515625|1.148190855979919|-1.225577712059021|0.5298225283622742|-0.703051745891571|-0.017898079007864|XArbitraryZVertical|0.6331594195122345|0.3378444084262292|0.1763295168950805|-0.6737049496014051|-0.6785042881965637|0.7339813709259033|0.03005938977003098|0|0|0|-1|-1|3
2021-03-04 23:18:16.833 +0000|234962.838313375|-0.39508056640625|0.1726226806640625|-0.1336517333984375|234962.8183530417|-1.383923646934965|-1.602426658467576|-0.7938974588308289|-0.8458235263824463|1.30969226360321|-1.710122108459473|0.3396825790405273|-0.5481282472610474|0.0284725446254015|XArbitraryZVertical|0.6297562279565548|0.3383678575901961|0.1956581974389806|-0.6712914704629706|-0.7007208466529846|0.7130910754203796|0.02217142656445503|0|0|0|-1|-1|3
2021-03-04 23:18:16.854 +0000|234962.858275375|-0.2908172607421875|0.0819244384765625|-0.04144287109375|234962.838313375|-1.415847821425195|-1.597723021717474|-0.7555900375006378|-1.518821954727173|1.309351086616516|-2.011251211166382|0.3126252293586731|-0.4976841807365417|-0.05351686477661133|XArbitraryZVertical|0.6285633970847255|0.3386833333536975|0.2207769689274427|-0.6644240026273367|-0.7276033163070679|0.6857182383537292|0.01959668844938278|0|0|0|-1|-1|3
2021-03-04 23:18:16.873 +0000|234962.878237375|-0.380279541015625|0.71246337890625|0.1029205322265625|234962.858275375|-1.467287961348922|-1.611439584903504|-0.7160136806796904|-2.480305671691895|0.7087004780769348|-1.983711957931519|0.4331265091896057|-0.6003522872924805|-0.2084951400756836|XArbitraryZVertical|0.6326206893019171|0.3392905147244851|0.2466088620120492|-0.6510430440719946|-0.7538052201271057|0.6563825011253357|0.03065397962927818|0|0|0|-1|-1|3
2021-03-04 23:18:16.893 +0000|234962.898199375|-0.421478271484375|1.060501098632812|0.2008514404296875|234962.878237375|-1.533498984055157|-1.644997748499362|-0.671351113632306|-2.495043277740479|0.2698354423046112|-2.047185182571411|0.4720353484153748|-0.2777604460716248|0.03585755825042725|XArbitraryZVertical|0.6414798665423136|0.342820828862631|0.2718554612454669|-0.630136597671164|-0.780827522277832|0.6220444440841675|0.05804507806897163|0|0|0|-1|-1|3
2021-03-04 23:18:16.913 +0000|234962.918161375|-0.34912109375|0.858062744140625|0.2386322021484375|234962.898199375|-1.595848510710121|-1.675063722726875|-0.6299935453582921|-2.91483736038208|0.4842793643474579|-1.609292268753052|0.3638541698455811|0.4751762747764587|0.1135941743850708|XArbitraryZVertical|0.650519551892796|0.3447806396910755|0.2948639168593843|-0.6091025856558162|-0.8036430478096008|0.5891395211219788|0.08409875631332397|0|0|0|-1|-1|3
2021-03-04 23:18:16.933 +0000|234962.938123375|-0.4521331787109375|1.40887451171875|0.3287811279296875|234962.918161375|-1.662268648893767|-1.705688512881115|-0.5904226594616928|-2.966663360595703|0.2583030164241791|-1.711047291755676|0.4525995254516602|0.2819718718528748|0.04442714154720306|XArbitraryZVertical|0.6612922597467205|0.3443118110518714|0.3172268321240832|-0.5860964323177464|-0.8231591582298279|0.5567121505737305|0.1117161512374878|0|0|0|-1|-1|3
2021-03-04 23:18:16.953 +0000|234962.958085375|-0.480224609375|1.789932250976562|0.5849609375|234962.938123375|-1.725360256044526|-1.734442516196321|-0.5485400911382752|-2.707299709320068|0.2460320293903351|-1.621590137481689|0.4581586122512817|0.595104455947876|0.1941609084606171|XArbitraryZVertical|0.6715282606172551|0.3443212707284533|0.338719953844778|-0.5619264879648603|-0.8418865203857422|0.5214420557022095|0.1390146911144257|0|0|0|-1|-1|3
2021-03-04 23:18:16.973 +0000|234962.978047375|-0.421234130859375|1.541351318359375|0.51007080078125|234962.958085375|-1.777827292973687|-1.754870637435222|-0.5115527927531657|-2.616390943527222|0.371646374464035|-1.214321970939636|0.3772279620170593|1.178925156593323|0.3170487880706787|XArbitraryZVertical|0.6796055974288777|0.3434222528679133|0.3574308289669071|-0.5407778077347887|-0.8572542667388916|0.4895318448543549|0.1596052199602127|0|0|0|-1|-1|3
2021-03-04 23:18:16.993 +0000|234962.998009375|-0.554107666015625|1.580902099609375|0.522918701171875|234962.978047375|-1.832147714174073|-1.775825964487943|-0.4822679675915263|-2.791546821594238|0.01443949807435274|-0.7761490941047668|0.4274325370788574|1.202103972434998|0.3606557846069336|XArbitraryZVertical|0.6893028157270943|0.3391890249148153|0.3732555725296|-0.5200893083245561|-0.8673893809318542|0.4637896716594696|0.1803751289844513|0|0|0|-1|-1|3
2021-03-04 23:18:17.013 +0000|234963.017970375|-0.6538848876953125|1.629135131835938|0.5991058349609375|234962.998009375|-1.893238030279498|-1.808607135746117|-0.4565494947835869|-3.008761167526245|-0.425371378660202|-0.5553741455078125|0.4016907811164856|1.067752361297607|0.2375879287719727|XArbitraryZVertical|0.7030098892277562|0.3339176119677316|0.3846960429393841|-0.4962712581585694|-0.8723176717758179|0.440853625535965|0.2114477455615997|0|0|0|-1|-1|3
2021-03-04 23:18:17.033 +0000|234963.037932375|-0.651519775390625|1.476287841796875|0.7239532470703125|234963.017970375|-1.947168720985851|-1.841318370071387|-0.4344065762553885|-2.066994428634644|-0.6139076948165894|-0.370424747467041|0.2370292544364929|1.225154519081116|0.33165243268013|XArbitraryZVertical|0.7161048287297453|0.3292427686955752|0.392300320741084|-0.4742296303938863|-0.8741296529769897|0.4208721816539764|0.2424138486385345|0|0|0|-1|-1|3
2021-03-04 23:18:17.053 +0000|234963.057894375|-0.9568023681640625|1.31976318359375|0.8928375244140625|234963.037932375|-1.973985518386868|-1.870284380000487|-0.4198465416249738|-0.7613046169281006|-1.256341099739075|-0.3338946998119354|0.2401808500289917|1.196978807449341|0.4198162853717804|XArbitraryZVertical|0.7248601354227097|0.3305780637993539|0.3920676721014587|-0.4599771999933341|-0.8725051879882812|0.4076203405857086|0.2694081366062164|0|0|0|-1|-1|3
2021-03-04 23:18:17.073 +0000|234963.077856375|-1.380874633789062|1.602630615234375|1.226882934570312|234963.057894375|-1.978802250339606|-1.90558172493981|-0.4131841519586879|0.2042198479175568|-1.993616342544556|-0.1849228888750076|0.09798634052276611|0.9179151654243469|0.4075490236282349|XArbitraryZVertical|0.7319118396703107|0.3387674407398644|0.3820992340812354|-0.4511561897776936|-0.8649999499320984|0.4015275537967682|0.3009166419506073|0|0|0|-1|-1|3
2021-03-04 23:18:17.093 +0000|234963.097818375|-1.226516723632812|0.8649139404296875|1.283035278320312|234963.077856375|-1.971366894534977|-1.94269844294229|-0.4167040739886045|0.2316303998231888|-1.954149961471558|0.407444030046463|-0.3570075631141663|1.161352396011353|0.7422469854354858|XArbitraryZVertical|0.7378681928654423|0.3488506122952705|0.3658392592682964|-0.4472311421745254|-0.8519160151481628|0.4047487676143646|0.3322924375534058|0|0|0|-1|-1|3
2021-03-04 23:18:17.113 +0000|234963.117780375|-1.162933349609375|0.9409942626953125|0.9709320068359375|234963.097818375|-1.977776196991141|-1.985125152836595|-0.4321483329270044|-0.3813073933124542|-2.094321966171265|1.170375943183899|-0.4978680610656738|0.7500007152557373|0.9452248811721802|XArbitraryZVertical|0.7477362890857273|0.351672472518629|0.3472956517390811|-0.4433991306432561|-0.8312336802482605|0.4188225865364075|0.3655661642551422|0|0|0|-1|-1|3
2021-03-04 23:18:17.133 +0000|234963.137742375|-1.113754272460938|1.199325561523438|1.055435180664062|234963.117780375|-2.007742046423881|-2.040302403573235|-0.453212322776066|-1.029102563858032|-2.127349853515625|1.888587117195129|-0.3989070653915405|0.4294385612010956|0.7143397927284241|XArbitraryZVertical|0.7636222426389532|0.3467935358193079|0.3272727322223747|-0.4353251585084766|-0.8017613887786865|0.4378558099269867|0.4067693650722504|0|0|0|-1|-1|3
2021-03-04 23:18:17.153 +0000|234963.157704375|-1.083938598632812|1.2239990234375|1.237655639648438|234963.137742375|-2.045081757890213|-2.096994425871535|-0.48041893688525|-0.4276463389396667|-1.859387159347534|2.05171275138855|-0.3584524989128113|0.6178968548774719|0.5119714736938477|XArbitraryZVertical|0.7802723132774771|0.3374505300231914|0.3060678034058968|-0.4285146374434415|-0.766837477684021|0.4621507227420807|0.4453954994678497|0|0|0|-1|-1|3
2021-03-04 23:18:17.173 +0000|234963.177666375|-1.001708984375|0.75836181640625|0.9613037109375|234963.157704375|-2.06937605983132|-2.142902047755663|-0.5145394526370316|0.110029861330986|-1.61155378818512|2.00147271156311|-0.3944118618965149|0.7837753295898438|0.7161060571670532|XArbitraryZVertical|0.7921254334212436|0.3289201885425109|0.2840232284593475|-0.4285785463141854|-0.7319003343582153|0.4921339750289917|0.4713023900985718|0|0|0|-1|-1|3
2021-03-04 23:18:17.193 +0000|234963.197627375|-0.754547119140625|0.901092529296875|0.5615386962890625|234963.177666375|-2.094671011375135|-2.185386101884715|-0.5482841681092383|-0.127180352807045|-1.372848510742188|2.039451837539673|-0.3537267446517944|0.4194502830505371|0.6567932367324829|XArbitraryZVertical|0.8025271675517436|0.3193763687062373|0.2634524946638279|-0.4295833845213374|-0.6972531080245972|0.5212236642837524|0.4921022355556488|0|0|0|-1|-1|3
2021-03-04 23:18:17.213 +0000|234963.217589375|-0.540252685546875|0.8634490966796875|1.011306762695312|234963.197627375|-2.128448729435337|-2.229503240238046|-0.5776282596581489|-0.3062818944454193|-1.306520223617554|2.051917791366577|-0.2758058309555054|0.2367526888847351|0.1970197558403015|XArbitraryZVertical|0.8133921040348771|0.3078760465547749|0.2450772792261265|-0.4284190670662247|-0.662487804889679|0.5460385084152222|0.5127887725830078|0|0|0|-1|-1|3
2021-03-04 23:18:17.233 +0000|234963.237551375|-0.791107177734375|0.9579010009765625|1.90899658203125|234963.217589375|-2.15715762506994|-2.271601474293192|-0.6074974722544246|0.588893711566925|-1.340182900428772|1.697129845619202|0.04227322340011597|0.3282333612442017|0.1808832883834839|XArbitraryZVertical|0.8221932992570999|0.297872061378006|0.2261937279653239|-0.4290767518906254|-0.6275699138641357|0.5708144903182983|0.5294591784477234|0|0|0|-1|-1|3
2021-03-04 23:18:17.253 +0000|234963.257513375|-0.94049072265625|0.9055023193359375|2.051376342773438|234963.237551375|-2.160149105986443|-2.298200419109928|-0.6433648439430421|1.582411408424377|-1.059453248977661|1.212427854537964|-0.02492928504943848|0.3568045496940613|0.9775664806365967|XArbitraryZVertical|0.8244335539234194|0.293785181357673|0.2065461470149108|-0.4374223814862556|-0.5975835919380188|0.5998910069465637|0.5320008397102356|0|0|0|-1|-1|3
2021-03-04 23:18:17.273 +0000|234963.277475375|-1.141693115234375|1.061492919921875|1.78759765625|234963.257513375|-2.14587581955624|-2.305937158823768|-0.6794440921464253|1.446174383163452|-0.7319303750991821|0.800650417804718|-0.3191965222358704|0.2851067185401917|1.568769216537476|XArbitraryZVertical|0.8216991607460643|0.2927174138054882|0.1907014599354184|-0.4502888525230769|-0.5770132541656494|0.6283606886863708|0.5217459797859192|0|0|0|-1|-1|3
2021-03-04 23:18:17.293 +0000|234963.297437375|-1.174728393554688|0.5067291259765625|1.341323852539062|234963.277475375|-2.139707456679716|-2.323967954722194|-0.7020100825689416|0.3998806476593018|-1.443919658660889|0.5884796380996704|-0.4367805123329163|0.355344831943512|1.339554309844971|XArbitraryZVertical|0.8214183366007037|0.2939179676377677|0.1758940184456831|-0.4560103982066263|-0.5570244193077087|0.645753800868988|0.5222316980361938|0|0|0|-1|-1|3
2021-03-04 23:18:17.313 +0000|234963.317399375|-0.845123291015625|-0.2164306640625|0.6171417236328125|234963.297437375|-2.144455495053981|-2.364948047779313|-0.714706367850255|0.5546181201934814|-2.361125707626343|0.5917481780052185|-0.7391670346260071|0.1125944852828979|1.06078028678894|XArbitraryZVertical|0.82485555898897|0.2982859098275644|0.1567277837434922|-0.4539552651141328|-0.52937251329422|0.6553956866264343|0.5387223362922668|0|0|0|-1|-1|3
2021-03-04 23:18:17.333 +0000|234963.337361375|-1.092544555664062|-0.0745086669921875|0.9738922119140625|234963.317399375|-2.12968157779913|-2.41169657930493|-0.7379256429451777|2.063476800918579|-3.312085390090942|0.1962448805570602|-0.4901074469089508|-0.4278814196586609|0.3923147916793823|XArbitraryZVertical|0.8244968931142085|0.3096694402554233|0.1279010759492834|-0.456016711537244|-0.493336945772171|0.6727545857429504|0.5513805747032166|0|0|0|-1|-1|3
2021-03-04 23:18:17.353 +0000|234963.357323375|-1.722366333007812|-0.6120758056640625|0.7786712646484375|234963.337361375|-2.088405545817396|-2.45039161392914|-0.7719376663834685|2.339354991912842|-3.188581943511963|-0.1955955028533936|-0.417120635509491|-0.9135742783546448|0.1529057621955872|XArbitraryZVertical|0.8176628011097115|0.3278346903923774|0.09330588612608137|-0.463946026308562|-0.4567807018756866|0.6975250244140625|0.5520960688591003|0|0|0|-1|-1|3
2021-03-04 23:18:17.373 +0000|234963.377284375|-1.787689208984375|-0.90667724609375|0.356231689453125|234963.357323375|-2.06172322025877|-2.477040208090463|-0.7910547791057058|0.01949974521994591|-1.416121602058411|-0.06090719997882843|-0.9847309589385986|-0.7290396094322205|0.4867502450942993|XArbitraryZVertical|0.8128350529682175|0.3406393561682241|0.07095171293262688|-0.4671508489386793|-0.4336040019989014|0.7110952734947205|0.5534719824790955|0|0|0|-1|-1|3
2021-03-04 23:18:17.393 +0000|234963.397246375|-1.67962646484375|-1.051422119140625|-0.168792724609375|234963.377284375|-2.067635443644946|-2.49655047809369|-0.7853690663008867|-0.1360663026571274|0.08339997380971909|-0.1944952607154846|-1.050956964492798|-2.019967794418335|0.3955544829368591|XArbitraryZVertical|0.8149693489499442|0.3440184135275388|0.06596074280364779|-0.4616551697872265|-0.4251477122306824|0.7070862054824829|0.5650474429130554|0|0|0|-1|-1|3
2021-03-04 23:18:17.413 +0000|234963.417208375|-1.282577514648438|-1.382614135742188|-0.0393524169921875|234963.397246375|-2.073112638644135|-2.49111039603167|-0.7842600884134983|0.6221082210540771|0.7997918128967285|0.1129696071147919|-1.165334820747375|-2.291506767272949|-0.4527693390846252|XArbitraryZVertical|0.8158121108927147|0.3407719595602786|0.06974934227466453|-0.4620174258991966|-0.4286898970603943|0.7063015699386597|0.5633498430252075|0|0|0|-1|-1|3
2021-03-04 23:18:17.433 +0000|234963.437170375|-1.006423950195312|-1.163284301757812|-0.4210968017578125|234963.417208375|-2.050970424965236|-2.46201216905776|-0.8038309681767591|1.659740209579468|0.5405985713005066|-0.2074550837278366|-1.009323120117188|-1.504153728485107|-0.5438716411590576|XArbitraryZVertical|0.8094732884343526|0.3385915157241931|0.07094533313993738|-0.4744213726835623|-0.4361267983913422|0.7200198769569397|0.5397824645042419|0|0|0|-1|-1|3
2021-03-04 23:18:17.453 +0000|234963.457132375|-0.763671875|-1.042572021484375|-0.27691650390625|234963.437170375|-2.014233194721174|-2.42773795846471|-0.8236038865801407|1.357459187507629|0.1744266599416733|-0.5107550024986267|-0.7509499788284302|-1.745639085769653|-0.7804726362228394|XArbitraryZVertical|0.8005297870156142|0.340559553845146|0.07027178618165604|-0.4880912573011252|-0.4449575841426849|0.7335997223854065|0.5136575102806091|0|0|0|-1|-1|3
2021-03-04 23:18:17.473 +0000|234963.477094375|-0.555755615234375|-0.660552978515625|-0.2677001953125|234963.457132375|-1.984018565402795|-2.404866507599182|-0.8280933886934917|0.372054398059845|-0.04548173397779465|-0.6698107719421387|-0.374349057674408|-1.949732303619385|-0.8842647075653076|XArbitraryZVertical|0.7942240239140475|0.3459185675358718|0.07066000491735955|-0.4945257865523434|-0.4543710649013519|0.7366433143615723|0.5009028911590576|0|0|0|-1|-1|3
2021-03-04 23:18:17.493 +0000|234963.497056375|-0.48358154296875|-0.5371551513671875|-0.1183929443359375|234963.477094375|-1.963007354838665|-2.39206311594457|-0.8227884877002148|0.435822993516922|-0.2753833830356598|-0.6966293454170227|-0.1910467445850372|-1.609052419662476|-0.8078039884567261|XArbitraryZVertical|0.7904396789500222|0.352355140726377|0.07210077234920867|-0.4958351197355776|-0.4634027183055878|0.7330453395843506|0.4978980720043182|0|0|0|-1|-1|3
2021-03-04 23:18:17.513 +0000|234963.517018375|-0.4843292236328125|-0.359832763671875|-0.05633544921875|234963.497056375|-1.936380153664878|-2.380279214136184|-0.8200274702036054|0.6896509528160095|-0.4857906103134155|-0.7950794696807861|-0.02215039730072021|-1.330575466156006|-0.6031649708747864|XArbitraryZVertical|0.7854342091612048|0.3605916411627136|0.0709560475046266|-0.4980282729741355|-0.4706322848796844|0.7311645746231079|0.4938664436340332|0|0|0|-1|-1|3
2021-03-04 23:18:17.532 +0000|234963.536979375|-0.48431396484375|-0.217041015625|-0.0293121337890625|234963.517018375|-1.902465972079383|-2.366963681830949|-0.8215157170579088|1.033318519592285|-0.6389777660369873|-0.7708863615989685|0.01095050573348999|-1.157120943069458|-0.5484995245933533|XArbitraryZVertical|0.7786994617382551|0.3701568073722252|0.06722931085807063|-0.5020870415001444|-0.4764047265052795|0.7321790456771851|0.4867778420448303|0|0|0|-1|-1|3
2021-03-04 23:18:17.552 +0000|234963.556941375|-0.5083160400390625|-0.002410888671875|-0.037109375|234963.536979375|-1.865971841082221|-2.354140115671408|-0.825836914502175|0.970969557762146|-0.7556648254394531|-0.7001347541809082|-0.004761546850204468|-0.9833149313926697|-0.5384348034858704|XArbitraryZVertical|0.7712383976381529|0.3799829773632345|0.06164915060767209|-0.5069552275221114|-0.4803611040115356|0.7351154088973999|0.4783914685249329|0|0|0|-1|-1|3
2021-03-04 23:18:17.572 +0000|234963.576903375|-0.7003326416015625|0.0915985107421875|-0.0238189697265625|234963.556941375|-1.834615833076309|-2.347578372841868|-0.8283787717071546|0.624784529209137|-0.9513152837753296|-0.6178752183914185|-0.005026876926422119|-0.8445633053779602|-0.4663800597190857|XArbitraryZVertical|0.764905820030274|0.3897153875359356|0.05539478844472488|-0.5098749784595499|-0.482155829668045|0.7368362545967102|0.4739179909229279|0|0|0|-1|-1|3
2021-03-04 23:18:17.592 +0000|234963.596865375|-0.85528564453125|0.2579498291015625|0.03125|234963.576903375|-1.816045670988639|-2.355709702903914|-0.8243801494881832|0.007251833099871874|-1.19331157207489|-0.5518050193786621|-0.1030987799167633|-0.6595574021339417|-0.5367401838302612|XArbitraryZVertical|0.7616072128598321|0.3998813460765612|0.04884590197781499|-0.5076055966186015|-0.4803667962551117|0.7341270446777344|0.4799012839794159|0|0|0|-1|-1|3
2021-03-04 23:18:17.612 +0000|234963.616827375|-0.888519287109375|0.510406494140625|0.1176300048828125|234963.596865375|-1.805899774452811|-2.372200490424103|-0.8160146765890534|0.05916964262723923|-1.185526728630066|-0.5269779562950134|-0.3286386728286743|-0.5667999982833862|-0.4903664588928223|XArbitraryZVertical|0.7602467241641521|0.4100010271095795|0.04269913893692351|-0.5020965667043746|-0.476643979549408|0.728421151638031|0.4921518564224243|0|0|0|-1|-1|3
2021-03-04 23:18:17.632 +0000|234963.636789375|-0.902923583984375|0.8604888916015625|0.1114349365234375|234963.616827375|-1.785930461155515|-2.380643987615465|-0.8143677694488177|0.8054418563842773|-1.131993532180786|-0.5551972985267639|-0.409209281206131|-0.3410614132881165|-0.4299032986164093|XArbitraryZVertical|0.7563275382104804|0.4200976164715032|0.03502593966883934|-0.5002597522522961|-0.4732980132102966|0.7272918224334717|0.4970267117023468|0|0|0|-1|-1|3
2021-03-04 23:18:17.652 +0000|234963.656751375|-0.9000091552734375|0.605010986328125|0.0258941650390625|234963.636789375|-1.74516514546294|-2.37153108797427|-0.8221142289427357|1.339405536651611|-1.009225130081177|-0.7457567453384399|-0.4401606917381287|-0.01124250888824463|-0.4869250059127808|XArbitraryZVertical|0.7472516499595206|0.4311983215845557|0.02566852012645296|-0.5049992275092473|-0.4738713204860687|0.7325865626335144|0.4886340498924255|0|0|0|-1|-1|3
2021-03-04 23:18:17.672 +0000|234963.676713375|-1.055206298828125|1.021163940429688|0.1261444091796875|234963.656751375|-1.712764410393271|-2.367470592291467|-0.8269404983676828|0.3600243926048279|-1.073031425476074|-0.5535563230514526|-0.4206383228302002|-0.06832164525985718|-0.410548210144043|XArbitraryZVertical|0.7400016522299542|0.4410029168337491|0.01736988145096646|-0.507555268038076|-0.4733741879463196|0.7358631491661072|0.4841720461845398|0|0|0|-1|-1|3
2021-03-04 23:18:17.692 +0000|234963.696675375|-1.03192138671875|1.001022338867188|0.313385009765625|234963.676713375|-1.708729459743248|-2.384822863155567|-0.8160198166420086|-0.9253892302513123|-0.9139618873596191|-0.365021824836731|-0.5151737928390503|0.137069046497345|-0.4376706182956696|XArbitraryZVertical|0.7395378764109063|0.4496073182676761|0.01359509560282532|-0.5007516265421703|-0.4703913629055023|0.7284246683120728|0.4981260299682617|0|0|0|-1|-1|3
2021-03-04 23:18:17.712 +0000|234963.716636375|-0.920196533203125|1.2318115234375|0.3917236328125|234963.696675375|-1.72855011392241|-2.412754170535966|-0.7919005455665735|-1.721932649612427|-0.4082060754299164|-0.2505419552326202|-0.6083846092224121|0.2947037220001221|-0.3255989551544189|XArbitraryZVertical|0.7449290753394597|0.4550745576415935|0.01617646728588973|-0.4875717032795671|-0.4678635895252228|0.7116896510124207|0.5240243673324585|0|0|0|-1|-1|3
2021-03-04 23:18:17.732 +0000|234963.736598375|-0.9188995361328125|1.14068603515625|0.488128662109375|234963.716636375|-1.755588670885784|-2.433942251250484|-0.7629169287480789|-1.560245394706726|0.1527913063764572|-0.2202813178300858|-0.4967880845069885|0.4003215432167053|-0.1860926747322083|XArbitraryZVertical|0.752207216112754|0.456965978425863|0.02430967900687558|-0.4741048633300902|-0.4698714315891266|0.6910328269004822|0.5492672324180603|0|0|0|-1|-1|3
2021-03-04 23:18:17.752 +0000|234963.756560375|-0.9134521484375|1.176422119140625|0.504180908203125|234963.736598375|-1.777701247413556|-2.441036542129296|-0.7377874574775727|-1.554605722427368|0.6171212196350098|-0.1505456566810608|-0.4264638423919678|0.5885170102119446|-0.05271631479263306|XArbitraryZVertical|0.7581422709638332|0.4561397314814941|0.03501163474421116|-0.4646837353394112|-0.4770090281963348|0.6726523637771606|0.5656863451004028|0|0|0|-1|-1|3
2021-03-04 23:18:17.772 +0000|234963.776522375|-0.85577392578125|1.173370361328125|0.4259185791015625|234963.756560375|-1.799805713492644|-2.439107571258974|-0.7149341560261531|-1.413923263549805|0.9659159779548645|-0.02740907482802868|-0.4475339651107788|0.4416309595108032|-0.1548713445663452|XArbitraryZVertical|0.7637988310361358|0.4525331126938502|0.04821019221561328|-0.4577128723028115|-0.4879062473773956|0.6555677056312561|0.5763497352600098|0|0|0|-1|-1|3
2021-03-04 23:18:17.792 +0000|234963.796484375|-0.77679443359375|1.482681274414062|0.5283203125|234963.776522375|-1.82217079399773|-2.431337626640826|-0.69563107561603|-1.323429703712463|1.32124137878418|0.05423660576343536|-0.3830928802490234|0.5357962250709534|-0.1520509719848633|XArbitraryZVertical|0.7691378318014793|0.4465884821269391|0.06243259243443409|-0.4528664021717663|-0.5005283951759338|0.6408700346946716|0.5820285677909851|0|0|0|-1|-1|3
2021-03-04 23:18:17.812 +0000|234963.816446375|-0.5442047119140625|1.741180419921875|0.86962890625|234963.796484375|-1.839332941298954|-2.407659703181956|-0.6804980698335614|-0.6558685898780823|2.085557460784912|-0.1161752566695213|-0.2883704900741577|0.5653693079948425|-0.1666131019592285|XArbitraryZVertical|0.772448218057208|0.4380630107559467|0.08022036313735087|-0.4527574553039942|-0.5206047296524048|0.6291802525520325|0.5771508812904358|0|0|0|-1|-1|3
2021-03-04 23:18:17.832 +0000|234963.836408625|-0.36041259765625|1.323379516601562|0.83538818359375|234963.816446375|-1.847334536246424|-2.369134223081386|-0.6738848116241252|-0.2936489582061768|2.2314293384552|0.1569738239049911|-0.1183562278747559|1.120434880256653|0.2378617525100708|XArbitraryZVertical|0.7725743646909971|0.4277247042030142|0.09900008176366723|-0.4586716093514343|-0.5453401803970337|0.6240262985229492|0.5596391558647156|0|0|0|-1|-1|3
2021-03-04 23:18:17.852 +0000|234963.856370625|-0.266571044921875|1.015533447265625|0.5075225830078125|234963.836408625|-1.858189464799081|-2.331152568759722|-0.6734520048741225|-0.4888695478439331|2.168475866317749|0.3940407931804657|0.1166402697563171|0.8935084939002991|0.3359662294387817|XArbitraryZVertical|0.7728219163093943|0.4148528854712976|0.1163193763616064|-0.4659539801984011|-0.5663930177688599|0.6236880421638489|0.538713276386261|0|0|0|-1|-1|3
2021-03-04 23:18:17.872 +0000|234963.876332625|-0.2695770263671875|1.025833129882812|0.8507232666015625|234963.856370625|-1.883499716840356|-2.307267363813733|-0.6675812475771027|-1.204728841781616|1.776230454444885|0.4574361741542816|0.2771279215812683|0.5678470730781555|0.115675151348114|XArbitraryZVertical|0.77654813832007|0.4008919854749812|0.1332966235126735|-0.4674297459011798|-0.5818001627922058|0.6190882921218872|0.527482807636261|0|0|0|-1|-1|3
2021-03-04 23:18:17.892 +0000|234963.896293625|-0.2510223388671875|1.161819458007812|1.022384643554688|234963.876332625|-1.915702829907565|-2.297988920022847|-0.6577957574969788|-1.092397212982178|1.154363751411438|0.5685369968414307|0.3227190971374512|0.3477325439453125|0.08880388736724854|XArbitraryZVertical|0.7823387052676135|0.3885593811301258|0.1473973154117212|-0.4639417964911435|-0.591167151927948|0.6113740205764771|0.5260644555091858|0|0|0|-1|-1|3
2021-03-04 23:18:17.912 +0000|234963.916255625|-0.2222442626953125|0.931732177734375|1.071426391601562|234963.896293625|-1.940438077406656|-2.293928777713069|-0.6562226447547811|-0.4459736943244934|0.7748783826828003|0.5536094903945923|0.3358394503593445|0.5694522261619568|0.4776729941368103|XArbitraryZVertical|0.7867896177345149|0.3782985806145872|0.1551907886675253|-0.4623506064576651|-0.5940181612968445|0.6101284027099609|0.524295449256897|0|0|0|-1|-1|3
2021-03-04 23:18:17.932 +0000|234963.936217625|-0.1005401611328125|0.7711944580078125|1.081085205078125|234963.916255625|-1.951974863341415|-2.28813150263425|-0.6611828832779161|0.03668061271309853|0.5220049619674683|0.4033286273479462|0.3599575757980347|0.3845148086547852|0.5354284048080444|XArbitraryZVertical|0.7884373108032445|0.3712010186746296|0.158669385569766|-0.4641125911340717|-0.5947598814964294|0.6140508651733398|0.5188471674919128|0|0|0|-1|-1|3
2021-03-04 23:18:17.952 +0000|234963.956179625|-0.182586669921875|0.587554931640625|0.76153564453125|234963.936217625|-1.956588514253024|-2.284949605190219|-0.6669472954675252|-0.08131854981184006|-0.02378053590655327|0.2595052421092987|0.4166753888130188|0.2953348755836487|0.5587087273597717|XArbitraryZVertical|0.7889594236250584|0.3672269467099256|0.1592872660479876|-0.4661706622748159|-0.5937232375144958|0.6185902953147888|0.5146251916885376|0|0|0|-1|-1|3
2021-03-04 23:18:17.972 +0000|234963.976141625|-0.1849822998046875|1.2445068359375|0.829315185546875|234963.956179625|-1.961915355406042|-2.294222271074052|-0.6689529382667219|0.2952095568180084|-0.400954395532608|0.06786081194877625|0.5051547288894653|-0.06743055582046509|0.487717866897583|XArbitraryZVertical|0.7906380998013169|0.3667893667661961|0.1562715049860644|-0.4646894641231384|-0.5879946947097778|0.6201649308204651|0.5192860960960388|0|0|0|-1|-1|3
2021-03-04 23:18:17.992 +0000|234963.996103625|-0.15576171875|0.848388671875|0.718170166015625|234963.976141625|-1.953122561676079|-2.297384479061641|-0.6782899786304782|0.8446570634841919|-0.6596476435661316|0.13260118663311|0.3483992218971252|0.4200534224510193|0.2868649959564209|XArbitraryZVertical|0.7891052604107107|0.3687134031202712|0.1502051901648173|-0.4677625470594672|-0.5819960236549377|0.6274624466896057|0.5172733664512634|0|0|0|-1|-1|3
2021-03-04 23:18:18.012 +0000|234964.016065625|-0.1996307373046875|0.5938262939453125|0.4322662353515625|234963.996103625|-1.931555342107705|-2.300872174168899|-0.6945757753289429|1.593372941017151|-1.182100176811218|0.03320669010281563|0.4435760378837585|0.4285592436790466|0.3608289957046509|XArbitraryZVertical|0.7850575542944025|0.3740224741830492|0.1388816740562274|-0.4738183112924604|-0.5724976062774658|0.6400595307350159|0.5124163627624512|0|0|0|-1|-1|3
2021-03-04 23:18:18.032 +0000|234964.036027625|-0.297576904296875|1.178070068359375|0.7042083740234375|234964.016065625|-1.905178673166232|-2.312508362738406|-0.7176714361828972|2.04045033454895|-1.467100858688354|0.3283160030841827|0.353985071182251|0.2252870798110962|0.145118236541748|XArbitraryZVertical|0.780366187182743|0.3814291948157141|0.1210215954030554|-0.4805145391821271|-0.5554468631744385|0.6576322317123413|0.5089192390441895|0|0|0|-1|-1|3
2021-03-04 23:18:18.052 +0000|234964.055988625|-0.272979736328125|0.9129791259765625|0.71380615234375|234964.036027625|-1.870283761887378|-2.32172060182219|-0.749778500716641|1.976303935050964|-1.814431428909302|0.3465190827846527|0.2343432307243347|0.4098929166793823|0.03301876783370972|XArbitraryZVertical|0.7733995115637694|0.3892630441346133|0.09904906786863801|-0.490425030502001|-0.5350176692008972|0.6814766526222229|0.4993450343608856|0|0|0|-1|-1|3
2021-03-04 23:18:18.071 +0000|234964.075950625|-0.42645263671875|1.060623168945312|0.543792724609375|234964.055988625|-1.833405258257854|-2.334491798042535|-0.7876465455192641|2.366155624389648|-2.001198053359985|0.6109601259231567|0.2888341546058655|0.08496052026748657|0.2687981724739075|XArbitraryZVertical|0.7656619060165324|0.3971489769865828|0.07306180024704216|-0.500695980318995|-0.509583055973053|0.7086948156356812|0.4879309237003326|0|0|0|-1|-1|3
2021-03-04 23:18:18.091 +0000|234964.095912625|-0.41070556640625|0.9138946533203125|0.461639404296875|234964.075950625|-1.802468837791309|-2.348777698088102|-0.8320600912615335|2.149141311645508|-1.633555054664612|1.079310297966003|0.1018440723419189|0.3308552503585815|0.1177889108657837|XArbitraryZVertical|0.7584380830164026|0.401330601025925|0.04554865212529206|-0.5114987387516829|-0.4796518683433533|0.7393200993537903|0.4725891649723053|0|0|0|-1|-1|3
2021-03-04 23:18:18.111 +0000|234964.115874625|-0.3594818115234375|0.68841552734375|0.1912689208984375|234964.095912625|-1.788296211961313|-2.365219613753921|-0.8761499709278204|1.624711871147156|-1.075487613677979|1.335436701774597|0.02025705575942993|0.2329254150390625|0.08316045999526978|XArbitraryZVertical|0.7540606391370789|0.3996752766286709|0.02138602380029317|-0.5207638560529717|-0.448525607585907|0.7682801485061646|0.456695556640625|0|0|0|-1|-1|3
2021-03-04 23:18:18.131 +0000|234964.135836625|-0.400848388671875|0.8119659423828125|0.1623077392578125|234964.115874625|-1.790086280888713|-2.384400745207855|-0.9153642418042185|1.150053143501282|-0.6996887922286987|1.42689037322998|0.05128610134124756|-0.02925014495849609|-0.08604788780212402|XArbitraryZVertical|0.7525230305965136|0.3939445164809171|0.001895888269457635|-0.5277435791297183|-0.4186567664146423|0.7927846312522888|0.4429664015769958|0|0|0|-1|-1|3
2021-03-04 23:18:18.151 +0000|234964.155798625|-0.4483642578125|0.5466156005859375|0.0920562744140625|234964.135836625|-1.808370758258145|-2.411871080410523|-0.9442559939466303|0.2845281958580017|-0.5645328164100647|1.293898224830627|0.04055279493331909|-0.09161609411239624|-0.2738306522369385|XArbitraryZVertical|0.754207934591279|0.3868976646029406|-0.01293969943244705|-0.5303896959851393|-0.3908946216106415|0.8100609183311462|0.4370388090610504|0|0|0|-1|-1|3
2021-03-04 23:18:18.171 +0000|234964.175760625|-0.498077392578125|0.769683837890625|0.218109130859375|234964.155798625|-1.840395025778812|-2.447891541885284|-0.9615557008973389|-0.120938628911972|-0.4020233154296875|1.210358858108521|-0.06993529200553894|-0.1446218490600586|-0.3336367011070251|XArbitraryZVertical|0.7587165383082335|0.3799270270173986|-0.02358878465531855|-0.5286287618897388|-0.3658863008022308|0.8200827836990356|0.4399906694889069|0|0|0|-1|-1|3
2021-03-04 23:18:18.191 +0000|234964.195722625|-0.4950103759765625|0.1694183349609375|-0.0241241455078125|234964.175760625|-1.871493149346307|-2.480482564542537|-0.9730782608751642|0.06796210259199142|-0.3091276586055756|0.8921758532524109|-0.1104640364646912|-0.2081831097602844|-0.2550124526023865|XArbitraryZVertical|0.7631221888838678|0.3738182229138403|-0.03138434800701567|-0.5262314942108625|-0.3455296456813812|0.826621949672699|0.4441910684108734|0|0|0|-1|-1|3
2021-03-04 23:18:18.211 +0000|234964.215684625|-0.3526763916015625|0.217437744140625|0.1817474365234375|234964.195722625|-1.887697035029868|-2.491389296975146|-0.9847903616133172|0.523540735244751|0.2886508107185364|0.6672048568725586|-0.2188694775104523|-0.2075611352920532|-0.2363236546516418|XArbitraryZVertical|0.764822098962137|0.3676211465855117|-0.0348829885879694|-0.5279062433985895|-0.3347804248332977|0.8331561684608459|0.440196305513382|0|0|0|-1|-1|3
